acc_x,acc_y,acc_z,gry_x,gry_y,gry_z,gender,weight,height,times,timeSs_g,userInfo
"[-0.06205196,-0.038133886,-0.03337326,-0.0043986277,0.036326744,0.08589821,0.074385926,0.090941355,0.044850104,0.08332875,0.14020637,0.11873325,0.10085718,0.111251846,0.12284075,0.10785304,0.11567825,0.07990313,0.13738409,0.17621708,0.1384222,0.1437833,0.20914693,0.24815328,0.23212263,0.24571308,0.21415369,0.246349,0.18296298,0.200501,0.1866692,0.18394938,0.1932073,0.20881268,0.17250416,0.11508737,0.1324549,0.10453755,0.09358839,0.0013273454,0.012672031,-0.028611666,0.08833072,0.100180104,0.0011176134,-0.008928457,-0.048027687,-0.006562028,0.056487836,0.0029544448,-0.057841998,-0.00239899,-0.03919021,-0.0090376325,0.0024516624,0.061964817,0.03451194,-0.016822618,0.01116943,-0.041734766,-0.021092918,-0.01602966,0.02629887,-0.004254018,0.0029582756,-0.040281963,0.0029611487,0.03123284,-0.042487502,-0.038629964,-0.03842598,-0.009936895,-0.006769845,0.00063302694,0.004943548,-0.041279867,-0.006563944,-0.045968674,0.014305833,0.09880678,0.12503384,0.096471004,0.011902055,0.0683353,0.07603506,0.15227984,0.13090059,0.11994088,0.12642439,0.117239274,0.16845316,0.20052397,0.13913377,0.1940692,0.18287584,0.1483227,0.22306395,0.20473202,0.19554117,0.10213568,0.13603184,0.24475443,0.24833712,0.19759348,0.1189631,0.07375099,0.05635951,0.11254664,0.11310209,0.07731644,0.05047839,0.030042443,0.020382319,-0.00549613,-0.031051839,-0.014796168,-0.023004448,-0.095082365,-0.10756574,-0.05011639,-0.0072611356,-0.01781669,-0.023674825,-0.11285885,-0.032095708,-0.10562931,-0.052066226,-0.0046351748,0.0053898273,-0.06157025,-0.006861782,-0.0076633603,-0.029522423,0.0074909786,0.00744884,0.002173935,-0.009809523,-0.005491341,0.004830541,-0.00056982005,-0.03967001,-0.04940962,0.00989763]","[-0.018303193,0.013520536,0.013736014,0.036420595,0.047060426,0.053627245,0.03386359,-0.0053371545,0.005038358,-0.005411853,0.008705318,0.008350976,0.026036466,0.017568652,0.0071146092,-0.018588582,-0.030806672,-0.039773438,-0.03388849,-0.05971905,-0.036739506,-0.028073454,-0.088264644,-0.09034185,-0.079113044,-0.076706395,-0.06294452,-0.08479975,-0.06386964,-0.07434571,-0.070074454,-0.0672196,-0.07118632,-0.071766675,-0.07427867,-0.058993123,-0.022307256,-4.7884034e-05,0.002608722,-0.03973896,-0.051012777,0.006766972,0.06537033,0.08759618,0.06556569,0.049565725,0.038590703,0.055081002,0.07804332,0.06473155,0.026641717,0.022399193,0.01808963,0.020097885,0.010509588,-0.058887787,-0.10120003,-0.12543415,-0.12710817,-0.09859227,-0.09182721,-0.06327109,-0.056108594,-0.060464133,-0.05750394,-0.056548167,-0.027358064,-0.011731588,-0.038523663,-0.044505335,-0.048067905,-0.036966473,-0.03099438,-0.02960574,-0.025500163,-0.061028205,-0.046769295,-0.013957238,-0.0055085793,0.0142445415,0.006517975,-0.038802348,-0.033451788,-0.053252786,-0.010578541,-0.0073387073,-0.057651423,-0.08419737,-0.09772557,-0.10923402,-0.06268881,-0.0686207,-0.021169532,-0.06968755,-0.03234279,-0.07529477,-0.05062492,-0.06582427,-0.034942895,-0.06280087,-0.032761298,0.0010457874,0.009498278,-0.04006936,-0.05953039,-0.09839499,-0.094579585,-0.08545576,-0.051745404,-0.057673443,-0.04526382,-0.050060846,-0.027502675,-0.024727315,-0.014589308,-0.006172252,-0.007842447,-0.0018464082,-0.030172687,-0.013942872,0.015953045,0.023191195,0.020239625,-0.01547995,0.012056243,-0.0064260378,-0.014505988,-0.0037138853,-0.028835768,-0.039579984,-0.04041221,-0.048093766,-0.040326975,-0.023521597,-0.0013953408,-0.011072705,-0.010063308,-0.005775772,-0.0141957,-0.012195106,-0.0062124743,-0.022575406,-0.028896099]","[0.9374095,0.9264287,0.9274889,0.9368885,0.92815256,0.9113739,0.9228039,0.95383656,0.96898794,0.9645588,0.9561149,1.0290232,1.0334055,0.9072512,0.88464797,0.9839508,0.9707855,0.8941932,0.8210991,0.88614386,0.9781415,0.91826546,0.953465,1.1141331,1.1284859,1.1229907,1.0544485,1.2026488,1.2705463,1.3716085,1.1731656,1.1628983,1.1387159,1.1727413,1.2761315,1.2101847,1.124254,1.1945515,1.0898205,1.1127292,1.0425838,0.92464256,1.05032,1.0994518,1.0896807,0.88426006,0.83812,0.71481764,0.97405034,0.8571903,0.7431717,0.6225671,0.86105365,0.8182165,0.9625103,0.77423596,0.7790704,1.0397587,1.0060282,1.0199213,0.9753461,1.0316701,1.0018594,0.9803586,0.94909894,0.88863575,0.96113217,0.9972951,1.032147,0.9644141,0.8506752,0.8979386,0.91883624,0.8699859,0.87767696,0.96398604,0.90162766,0.93798506,0.9756382,0.95470417,1.0127465,1.0213587,0.86681014,0.98240125,0.94024515,0.9092881,0.8822959,0.90427274,0.94888055,0.9403304,0.8754484,0.8888426,0.87893534,0.9732488,0.9632179,1.1255229,1.1279659,1.1661841,1.0680678,1.1288105,1.1776111,1.2208973,1.3695753,1.2384065,1.137058,0.9534103,0.9051012,1.0604417,1.0920922,1.2213695,1.1436327,1.1278223,1.1577421,1.1594765,1.2928947,1.1544266,1.1260697,0.90446043,0.86380595,0.98202306,1.0079896,1.0267276,0.7498965,0.8161796,0.6724853,0.7540012,0.7692053,0.9178478,0.9190459,0.8477246,0.81689966,0.84085417,1.0654074,0.9950158,0.9437234,0.96087074,0.97394115,0.9409844,0.96699035,0.93211347,0.93211824,0.92444247,0.9111595]","[-0.10662217,-0.07792895,-0.063756876,-0.07422885,-0.10456268,0.020036379,0.13171999,0.11798426,0.05035275,0.01813397,-0.0283616,-0.22364649,-0.44196972,-0.1984963,0.058433622,-0.119240895,-0.37542033,-0.37114426,-0.09089675,-0.111421816,-0.3201283,0.042376593,0.41263074,0.16585864,-0.028012535,-0.10389945,0.2634749,0.44774675,0.23996532,-0.31756267,-0.18037978,-0.024452062,0.13695599,0.20556487,-0.0453262,-0.043022364,0.2731964,0.15358898,0.2622881,0.24582963,0.16887806,0.6124186,0.44732788,-0.020036379,-0.56538194,-0.4524068,-0.3159395,0.4513247,-0.21308725,-0.58885664,-0.44254568,0.25132743,-0.13383184,-0.09763372,-0.5235464,-0.10206685,0.4277802,0.08833111,-0.0021991148,-0.040805798,0.09147271,-0.02242748,-0.04017748,-0.058189277,0.00013962634,0.2533171,0.29332003,0.13938199,-0.20205677,-0.30911526,-0.015707964,0.06616543,-0.09456194,0.038240165,0.15896459,-0.022462387,0.09265953,0.014765485,-0.0108908545,0.10356784,-0.04171337,-0.33705798,0.046722464,-0.17800613,-0.10915289,-0.18755308,0.019914206,0.12746139,0.004066617,-0.08494517,-0.017558012,0.03211406,0.19334757,0.030770155,0.20139354,0.0389732,-0.020018926,-0.14854497,-0.06817256,-0.040282197,0.14252359,0.37955675,-0.098000236,-0.35945055,-0.5298296,-0.21266837,0.27345818,0.24106488,0.3279997,0.022008602,0.10864674,0.35339427,0.41343358,0.45645595,-0.058241636,-0.14723597,-0.4534889,-0.20338322,0.006091199,0.3911981,0.2504024,-0.39533454,-0.051330134,-0.28801423,-0.06653195,0.02125811,0.17484708,-0.039531708,-0.30026644,-0.2957286,-0.055414204,0.30543262,-0.038030725,-0.10964158,0.009372418,0.053092916,-0.044226643,0.01436406,-0.011065387,-0.025429446,-0.08183849,-0.08990191,0.051033426]","[-0.20949186,-0.15947074,-0.1974491,-0.26637214,-0.19685568,-0.24642304,-0.18196803,-0.22818434,-0.33171728,-0.30574676,-0.31388003,-0.27022934,-0.30586895,-0.25052455,-0.46633452,-0.29312804,-0.34168312,-0.12356931,-0.311262,-0.124773584,0.059725165,0.0198793,0.07677703,-0.019338248,0.12665854,0.22190116,0.1775349,0.18606955,0.124441974,0.15948819,0.12856095,0.010995574,0.091176,0.03600614,0.20746729,0.2840174,0.14287265,0.27171287,0.24865706,0.2107136,0.18992673,0.2067517,0.21331415,0.36084682,0.39360666,0.4121944,0.44573963,0.029461158,0.18624409,0.17592919,0.30312878,-0.14906856,0.11828096,-0.05820673,0.07719591,0.0037350047,-0.18832102,-0.0016057029,-0.024068091,-0.020367993,-0.05518731,-0.03520329,-0.011170107,0.010978121,0.030543262,-0.05042256,0.024068091,0.07346091,0.07422885,0.114807755,-0.020542525,-0.0813498,-0.059707712,-0.09037315,-0.29536206,-0.19369663,-0.41695917,-0.3061831,-0.3859621,-0.44865432,-0.46710247,-0.28572786,-0.5274385,-0.2576106,-0.44938737,-0.35754815,-0.31319934,-0.26775095,-0.27389452,-0.15156439,-0.10248573,0.0365821,-0.011414453,0.20769417,0.0514174,0.26113617,0.15913913,0.21050416,0.18886207,0.3400774,0.32866296,0.01563815,0.08749335,0.035499997,0.09927433,0.15409511,0.007941248,0.26867598,0.2920634,0.462233,0.42233476,0.3819304,0.31977922,0.27392942,0.3816686,0.22387338,0.28419197,0.29696777,0.47260025,0.22905701,0.05745624,0.20034635,-0.019320795,0.036651913,-0.009005899,0.07349581,-0.15381587,-0.21942279,-0.18217747,-0.16208872,-0.019216076,-0.14416419,-0.08398525,-0.041695915,-0.084247045,-0.032585297,0.008831366,-0.01584759,0.09234537,0.008691739,-0.016214108,0.18886207,0.07480481]","[-0.13423327,-0.12573352,-0.17350318,-0.18481292,-0.13980088,-0.05342453,-0.02141519,0.005497787,-0.0604233,-0.057595864,-0.021345377,0.052132983,0.046931904,0.06719518,0.07262315,0.0922232,0.09285152,0.009756391,-0.024574235,0.038467057,0.038676497,0.06122615,0.05215044,0.0067020645,0.03000221,0.061837014,0.055676002,0.1062731,0.06602581,0.07220427,0.053773593,-0.017575465,-0.047420595,-0.0567232,-0.018797196,-0.093951076,-0.11739085,-0.05581563,0.07035422,0.01144936,-0.063582346,-0.26047292,-0.18617427,-0.011972958,-0.009704031,-0.020158553,-0.08925614,-0.19104373,-0.0073827426,0.11613421,0.06904522,0.064751714,0.092746794,0.12229522,0.18678513,0.23664919,0.17018706,0.11407472,0.09721484,0.029932396,0.00057595863,-0.02284636,0.023509584,0.02401573,0.049218286,-0.03843215,-0.04108505,0.09107128,0.01675516,-0.010105456,-0.088872164,-0.104684845,-0.09580112,-0.1070934,-0.06794567,-0.11147418,-0.13035864,-0.16058774,-0.18245672,-0.09445722,0.03705334,0.12842132,-0.03417355,-0.034592427,-0.09056514,0.15053464,0.12424999,0.06724753,0.010541788,-0.09316567,-0.104911745,-0.046251226,-0.06510078,-0.036494836,-0.0109083075,-0.0551175,-0.005305801,-0.033004176,0.049340457,-0.06063274,-0.13533282,-0.0641234,0.1251401,0.16114625,0.18685494,0.053878315,-0.055833083,-0.00034906584,0.008552114,0.06859144,0.06277949,0.0027925267,0.016022123,-0.020315632,-0.012426744,-0.036163222,0.048624873,0.0027227136,0.024870941,-0.100042276,-0.0022340214,0.102869704,0.13631022,0.052883476,0.05503023,0.033632495,-0.020559978,0.028309241,0.06960373,-0.046373397,-0.0068940506,-0.063442715,-0.120898955,-0.08578293,-0.05454154,-0.040352013,-0.035395276,-0.03267256,0.014398966,0.014451326,0.018884463,0.006457718,0.039723694]",1,74,175,"[1.589376896001e+12,1.589376896043e+12,1.589376896084e+12,1.589376896126e+12,1.589376896169e+12,1.589376896213e+12,1.589376896255e+12,1.589376896298e+12,1.589376896338e+12,1.589376896383e+12,1.589376896421e+12,1.589376896462e+12,1.589376896502e+12,1.589376896542e+12,1.589376896585e+12,1.589376896628e+12,1.589376896668e+12,1.589376896712e+12,1.589376896753e+12,1.589376896795e+12,1.589376896838e+12,1.589376896883e+12,1.589376896926e+12,1.589376896969e+12,1.589376897017e+12,1.589376897059e+12,1.589376897101e+12,1.589376897142e+12,1.589376897165e+12,1.589376897207e+12,1.58937689725e+12,1.58937689729e+12,1.589376897332e+12,1.589376897375e+12,1.589376897416e+12,1.589376897459e+12,1.589376897499e+12,1.589376897543e+12,1.589376897582e+12,1.589376897624e+12,1.589376897664e+12,1.589376897708e+12,1.589376897747e+12,1.589376897788e+12,1.589376897831e+12,1.589376897873e+12,1.589376897916e+12,1.589376897954e+12,1.589376897996e+12,1.589376898044e+12,1.589376898086e+12,1.589376898129e+12,1.589376898174e+12,1.589376898217e+12,1.58937689826e+12,1.589376898303e+12,1.589376898344e+12,1.589376898388e+12,1.589376898426e+12,1.589376898468e+12,1.589376898511e+12,1.589376898555e+12,1.589376898594e+12,1.589376898636e+12,1.589376898678e+12,1.58937689872e+12,1.589376898762e+12,1.589376898805e+12,1.589376898846e+12,1.589376898889e+12,1.58937689893e+12,1.589376898972e+12,1.589376899014e+12,1.589376899056e+12,1.589376899097e+12,1.589376899139e+12,1.589376899181e+12,1.589376899225e+12,1.589376899268e+12,1.589376899308e+12,1.589376899353e+12,1.589376899395e+12,1.589376899435e+12,1.589376899477e+12,1.58937689952e+12,1.589376899568e+12,1.589376899603e+12,1.589376899644e+12,1.589376899687e+12,1.589376899728e+12,1.589376899771e+12,1.589376899812e+12,1.589376899854e+12,1.589376899898e+12,1.589376899938e+12,1.589376899981e+12,1.589376900022e+12,1.589376900063e+12,1.589376900105e+12,1.589376900147e+12,1.589376900188e+12,1.589376900229e+12,1.589376900271e+12,1.589376900312e+12,1.589376900355e+12,1.589376900398e+12,1.589376900439e+12,1.589376900481e+12,1.589376900522e+12,1.589376900563e+12,1.589376900605e+12,1.589376900648e+12,1.589376900689e+12,1.589376900737e+12,1.589376900774e+12,1.589376900815e+12,1.589376900857e+12,1.589376900899e+12,1.589376900943e+12,1.589376900985e+12,1.589376901027e+12,1.589376901076e+12,1.589376901117e+12,1.589376901159e+12,1.589376901201e+12,1.589376901243e+12,1.589376901284e+12,1.589376901326e+12,1.589376901367e+12,1.589376901409e+12,1.589376901451e+12,1.589376901493e+12,1.589376901544e+12,1.589376901585e+12,1.589376901631e+12,1.589376901675e+12,1.589376901717e+12,1.589376901759e+12,1.589376901799e+12,1.589376901847e+12,1.589376901887e+12,1.589376901929e+12,1.589376901971e+12]","[1.589376896001e+12,1.589376896043e+12,1.589376896084e+12,1.589376896126e+12,1.589376896169e+12,1.589376896213e+12,1.589376896255e+12,1.589376896298e+12,1.589376896338e+12,1.589376896383e+12,1.589376896421e+12,1.589376896462e+12,1.589376896502e+12,1.589376896542e+12,1.589376896585e+12,1.589376896628e+12,1.589376896668e+12,1.589376896712e+12,1.589376896753e+12,1.589376896795e+12,1.589376896838e+12,1.589376896883e+12,1.589376896926e+12,1.589376896969e+12,1.589376897017e+12,1.589376897059e+12,1.589376897101e+12,1.589376897142e+12,1.589376897165e+12,1.589376897207e+12,1.58937689725e+12,1.58937689729e+12,1.589376897332e+12,1.589376897375e+12,1.589376897416e+12,1.589376897459e+12,1.589376897499e+12,1.589376897543e+12,1.589376897582e+12,1.589376897624e+12,1.589376897664e+12,1.589376897708e+12,1.589376897747e+12,1.589376897788e+12,1.589376897831e+12,1.589376897873e+12,1.589376897916e+12,1.589376897954e+12,1.589376897996e+12,1.589376898044e+12,1.589376898086e+12,1.589376898129e+12,1.589376898174e+12,1.589376898217e+12,1.58937689826e+12,1.589376898303e+12,1.589376898344e+12,1.589376898388e+12,1.589376898426e+12,1.589376898468e+12,1.589376898511e+12,1.589376898555e+12,1.589376898594e+12,1.589376898636e+12,1.589376898678e+12,1.58937689872e+12,1.589376898762e+12,1.589376898805e+12,1.589376898846e+12,1.589376898889e+12,1.58937689893e+12,1.589376898972e+12,1.589376899014e+12,1.589376899056e+12,1.589376899097e+12,1.589376899139e+12,1.589376899181e+12,1.589376899225e+12,1.589376899268e+12,1.589376899308e+12,1.589376899353e+12,1.589376899395e+12,1.589376899435e+12,1.589376899477e+12,1.58937689952e+12,1.589376899568e+12,1.589376899603e+12,1.589376899644e+12,1.589376899687e+12,1.589376899728e+12,1.589376899771e+12,1.589376899812e+12,1.589376899854e+12,1.589376899898e+12,1.589376899938e+12,1.589376899981e+12,1.589376900022e+12,1.589376900063e+12,1.589376900105e+12,1.589376900147e+12,1.589376900188e+12,1.589376900229e+12,1.589376900271e+12,1.589376900312e+12,1.589376900355e+12,1.589376900398e+12,1.589376900439e+12,1.589376900481e+12,1.589376900522e+12,1.589376900563e+12,1.589376900605e+12,1.589376900648e+12,1.589376900689e+12,1.589376900737e+12,1.589376900774e+12,1.589376900815e+12,1.589376900857e+12,1.589376900899e+12,1.589376900943e+12,1.589376900985e+12,1.589376901027e+12,1.589376901076e+12,1.589376901117e+12,1.589376901159e+12,1.589376901201e+12,1.589376901243e+12,1.589376901284e+12,1.589376901326e+12,1.589376901367e+12,1.589376901409e+12,1.589376901451e+12,1.589376901493e+12,1.589376901544e+12,1.589376901585e+12,1.589376901631e+12,1.589376901675e+12,1.589376901717e+12,1.589376901759e+12,1.589376901799e+12,1.589376901847e+12,1.589376901887e+12,1.589376901929e+12,1.589376901971e+12]","{""country"":""China"",""avatarUrl"":""https://wx.qlogo.cn/mmopen/vi_32/TkutvetqnTpaBg7Z3rYt4LoiaJFw9u5vSUEYpickKhs1N1RSxUuqqZoPAziaS0foakJh5ibdxxxQXWlUtdtuAxVfug/132"",""nickName"":""Simplify"",""gender"":1.0,""language"":""zh_CN"",""city"":""Wuxi"",""province"":""Jiangsu""}"
"[0.1198614,0.08774366,0.04136127,0.09731376,0.0371197,0.075412564,0.10120386,0.14736791,0.08365054,0.10523762,0.15689395,0.13014689,0.17741035,0.22762826,0.16125235,0.16067679,0.13266367,0.17446356,0.16680115,0.21148367,0.15881506,0.1339144,0.19513509,0.2403156,0.29578927,0.17939946,0.20270364,0.15727797,0.2593543,0.29450116,0.19751015,0.1620798,0.14556363,0.19341223,0.2386502,0.20814998,0.17025168,0.14781514,0.18938039,0.13437697,0.057545118,0.03305722,0.024910232,-0.10120483,0.063136056,0.08027758,-0.013487016,0.10481145,-0.0067104683,-0.010338163,0.015277879,0.011273817,-0.0042003877,-0.05576671,-0.022841642,-0.028549422,-0.05134701,-0.04713896,0.008698614,0.04085849,0.044092573,0.081312835,0.040705256,0.1109272,0.06381218,0.07142957,0.060025513,0.019753123,0.029967744,0.055215083,0.06653199,0.06747148,0.093461975,0.03868934,0.03923809,0.045344267,0.006802405,0.015750973,0.018067604,0.07320415,0.1070572,0.14614877,0.18876079,0.105331466,0.10627766,0.17376158,0.13461064,0.14480707,0.14469214,0.18314207,0.15168801,0.13881677,0.18847348,0.14641118,0.14424394,0.27842936,0.08251664,0.26169488,0.19350608,0.16041248,0.11399655,0.16024776,0.14900458,0.10374459,0.16775118,0.15765627,0.044311885,0.130778,0.052010678,0.10061105,0.11540915,0.056037724,0.0652985,0.024567384,0.042123582,0.04926501,-0.010228029,0.0026403256,0.07724844,0.044872127,0.06277214,0.03847961,0.0048295837,-0.049624138,0.0780548,-0.013970645,0.10144903,0.1365509,0.14449582,0.1965544,0.12201522,0.08035036,0.17005919,0.10811065,0.08262486,0.075753495,0.106071755,0.08804054,0.12091198,0.032519005,0.04962127,0.10637055,0.052317135]","[0.005331408,-0.01552113,-0.027130136,-0.042206906,-0.023897963,-0.01965065,0.003130658,0.004367982,-0.052609228,-0.013788687,-0.020836258,0.011969093,0.0124852825,0.04011437,0.04268287,0.025450364,0.042870574,0.02547143,0.03960201,0.0374185,0.07504769,0.064017124,0.065850124,0.051120996,0.07819271,0.056578815,-0.01431158,0.019814413,0.0072755003,0.044716984,-0.013962028,-0.009530838,-0.051112376,-0.01084765,-0.00526054,0.0077371025,0.0151572125,0.025232013,0.02813091,0.05043625,0.045744576,0.028691154,0.018501433,0.04744733,0.06562315,0.094884135,0.10300621,0.083038576,0.040756974,0.037788164,0.07046327,0.042788215,0.025573904,-0.0027495013,0.00421188,0.02944102,0.046132438,0.06479955,0.023765804,0.02875053,0.024483107,0.025384283,0.05656445,0.052297987,0.058475982,0.042778637,0.012660539,0.01952711,0.015910907,0.025923457,0.024983974,0.02746341,0.005891652,0.00012545616,-0.0058322754,0.0056752157,-0.013472651,-0.034876816,0.008303092,-0.019178513,0.030061597,-0.0025752033,0.016650237,-0.00030933088,0.0009500192,0.002678633,0.0043306323,0.011890563,0.04095234,0.044976518,0.012252566,0.053622454,0.012175952,0.021752758,-0.019932209,-0.03842119,-0.0038240186,-0.010242395,0.03026558,0.008682334,0.004733816,-0.0018990809,-0.02736285,-0.05789563,-0.037226006,-0.063951045,-0.06897504,-0.039718848,-0.013478398,-0.0066893995,0.023324315,-0.008669883,0.011685619,0.016324624,0.026923275,0.035242647,0.037510436,-0.018848114,0.02197494,-0.000106302556,0.01815188,-0.0025570074,-0.008899727,-0.0074756555,-0.041693587,-0.038885664,-0.06401425,-0.03833787,-0.025252124,-0.00024612393,-0.023990858,-0.07186915,-0.02577502,-0.024619099,-0.02464687,-0.039356846,-0.029507097,-0.032139763,-0.059275646,-0.0719879,-0.031859167,-0.023108836,0.02177287]","[0.7878245,0.7620744,0.8633444,0.90760165,1.0478626,0.99515855,0.79648864,0.8222474,0.97047913,0.892907,1.0158339,0.93041646,0.99449193,0.9955176,0.92652637,0.93534756,1.0388958,0.9947237,1.006285,0.97335213,1.0543978,1.026625,1.0350776,1.039007,1.095444,0.9710662,0.96668375,0.9286419,0.9664329,1.131993,1.1942077,1.233371,1.096825,1.1337599,1.1095879,1.1348536,1.0563352,1.086119,1.2204626,1.2708786,1.1322869,1.0971515,1.0272696,1.0709007,1.1970809,1.3037252,1.0205802,0.81123984,1.0461819,0.99286205,0.906031,0.7732409,0.8704829,0.8111642,0.75496554,0.71215814,0.7960501,0.70341456,0.79190904,1.0251703,1.0006796,0.9323136,0.91443187,0.95127285,0.9674088,0.93201387,1.043713,0.95381737,0.9969715,0.90719366,0.92877406,0.880846,0.91258067,0.892815,0.9554187,0.834569,0.93223417,0.7599838,0.8442443,0.8258559,0.9898319,0.940656,0.9935056,0.92061174,0.786637,0.87066776,1.020607,1.0257171,0.9953434,0.90555793,1.0209336,1.0594572,1.2181995,1.1362001,0.96698266,1.0165637,1.1643031,1.3988564,1.1741539,1.0195343,1.1863481,1.032216,1.1955054,1.2370026,1.1894767,1.1967819,1.2890507,1.1467853,1.1256005,1.1217457,1.0448602,1.3530897,1.2582775,1.0850867,0.923072,0.95550287,0.92239875,1.0105466,0.7192804,0.7425138,0.63513386,0.81877387,0.6174301,0.70426404,0.6010816,0.79019,0.84528434,0.8886511,0.8808718,1.0729251,0.96948606,1.08139,0.9974599,0.9499216,0.83519906,0.9008175,0.8548535,0.8077749,0.8313807,0.80813503,0.7185047,0.7486314,0.8673196]","[-0.3406359,0.14191271,0.2194577,0.26970574,-0.23230332,-0.5618389,-0.03933972,0.27471483,0.07031932,0.46785295,0.14489724,0.24445081,0.17507398,0.009477138,-0.079395026,0.06817256,-0.14447835,-0.07826056,-0.077754416,0.14936528,-0.013247049,-0.010786135,0.10538298,0.2125462,-0.20083503,-0.28431413,-0.28850293,-0.00418879,0.2452013,0.07853982,-0.07716101,-0.2606649,0.0078016217,0.116849795,0.16929694,0.018308504,0.061295964,0.29616493,0.102031946,-0.23263493,-0.054628804,0.1306728,0.3811101,0.7465995,0.4325624,-0.653172,-0.57028633,0.22300072,-0.16854644,-0.36484364,-0.41069344,0.07649778,-0.007819075,-0.05108579,-0.012967796,0.1780934,0.020350538,0.34965926,0.60356975,0.38859755,-0.1654223,-0.3093596,-0.24001768,-0.2104169,-0.20511109,-0.017697638,-0.24825563,-0.12316789,-0.2916794,-0.16282177,-0.21673499,-0.03551745,0.01155408,0.1775349,-0.024068091,0.13222614,-0.36643186,-0.0017453292,0.02893756,0.3669904,0.39580578,0.3361504,-0.04522148,-0.33622023,0.12742649,0.08445648,-0.23898794,-0.4073424,-0.39446187,0.03637266,0.09854129,0.1836959,-0.10072295,-0.37175512,0.08988445,0.35135224,0.37515852,-0.4760211,-0.55709165,-0.10758209,-0.23438026,0.27145106,0.06794567,-0.056653388,0.061557762,0.34646532,-0.016144296,0.07862708,0.18037978,0.11801916,0.53637457,-0.13501868,-0.45275587,-0.43294638,-0.042760566,-0.08600982,-0.026895523,-0.50469685,-0.038798667,-0.19856611,0.25494024,-0.42399284,-0.071733035,-0.2157227,0.23139575,0.35231215,0.32852334,0.10341076,0.32426473,-0.09656907,0.018971728,-0.13267992,-0.18921115,-0.25099578,0.101525806,0.052813664,0.14391986,0.2969503,0.085014984,-0.09817477,0.14058627,0.3014009,0.06419321]","[-0.07063347,-0.25679028,-0.11683234,-0.14915584,-0.22984241,-0.041469023,-0.20971876,-0.22999948,0.032288592,-0.2561969,-0.10056587,-0.21216223,-0.11515682,-0.1126261,-0.15437438,-0.006736971,-0.024068091,-0.10716321,-0.08782497,-0.28745574,-0.11510447,0.15172148,0.01870993,-0.07110471,-0.017749999,0.09829694,0.15988961,0.20357521,-0.006021386,0.24296728,0.12606514,0.13229595,0.05625196,-0.06724753,0.048485246,0.06691592,0.320617,0.2555162,0.3362726,0.51216686,0.4031187,0.33068752,0.30888838,0.18453366,0.07318166,0.46698028,0.61638045,0.05693264,0.49715704,0.15275122,0.052621678,0.0058119465,-0.086812675,-0.09211848,-0.26368433,-0.32140237,-0.07876671,-0.062255893,-0.14440854,-0.23390903,-0.08925614,-0.0922232,0.0654673,0.019949114,0.11676253,-0.03499385,0.16756906,0.051941,0.17866935,0.1256288,0.14927801,0.008831366,-0.045465827,-0.21144664,-0.26899013,-0.47898817,-0.18744837,-0.3712141,-0.36351717,-0.34074062,-0.4699648,-0.2995334,-0.45303512,-0.11794935,-0.24415411,-0.082763515,0.13606587,-0.0026703537,0.1879196,-0.004415683,0.12348204,-0.08340929,0.008552114,0.061994094,0.21272072,0.02115339,0.17800613,0.0752935,0.25284585,0.010332349,0.22041763,-0.05092871,-0.05825909,-0.032375857,0.11409217,0.021991149,0.15592772,0.1972222,0.17805849,0.21204005,0.22074924,0.23909265,0.22300072,0.18800686,0.12168436,0.23577653,0.25886723,0.12276646,-0.24846508,0.06443755,-0.19170697,-0.038100537,-0.08848819,-0.07733554,-0.070598565,-0.17236872,-0.29073694,-0.044680428,-0.16828464,0.08086111,0.0800408,-0.06789331,-0.118664935,0.08798204,-0.021921335,0.04314454,-0.044017203,-0.28684485,-0.25715682,-0.072151914,-0.20245819,-0.23066272,-0.18676768]","[0.048258353,0.043493606,-0.011693706,0.001012291,-0.06349508,-0.058328904,-0.0718552,0.032096606,-0.06054547,-0.16449729,-0.10815805,-0.18030997,-0.16866861,-0.049497537,-0.08580039,-0.019373154,-0.08443903,-0.06133087,-0.059829887,-0.009320058,-0.0006981317,-0.050335295,-0.07745771,-0.086062185,0.03778638,0.13805555,0.108227864,-0.029077185,-0.083531454,0.25848326,0.1789137,0.15458381,-0.07632325,-0.094369955,-0.041486476,-0.04187045,-0.023527037,-0.09346238,-0.032847095,0.055850536,0.045465827,0.0606851,0.102573,-0.21731095,-0.16292648,0.101368725,-0.08239699,0.028885199,0.01425934,0.024678955,0.07944739,0.037384953,0.05735152,-0.024242623,-0.02141519,0.0018849556,-0.04642576,-0.12737413,-0.23293164,0.10950196,0.014625859,0.042219516,-0.007888888,0.05984734,0.03799582,0.061557762,0.07731809,-0.027855454,-0.022479841,-0.05199336,-0.00842994,0.0067195175,0.07850491,0.0012042772,0.0058643064,0.040858157,0.086655594,-0.08340929,-0.048572514,-0.12177162,-0.009808751,-0.029984757,0.08342674,0.06021386,-0.052307516,0.025534166,-0.01850049,-0.065240405,-0.047769662,-0.043458696,-0.11725122,-0.13487904,-0.020856684,0.07056366,0.01870993,0.16809265,-0.13199925,-0.014346606,0.0925199,-0.012967796,0.047891833,0.023614304,0.06883579,0.020455258,0.057281706,0.1351583,-0.06958628,-0.036617007,-0.09136798,-0.070092425,-0.005654867,-0.003036873,-0.014800392,-0.072972216,-0.10049606,-0.016196655,-0.037873644,-0.04384267,0.03031637,0.09279916,0.08719665,0.19045033,0.114301614,0.03164282,0.1285435,-0.06958628,-0.13404128,-0.06930702,-0.13727015,0.11869984,0.12681562,-0.037123155,0.08314749,0.033492867,-0.0077318083,-0.02719223,-0.01956514,-0.067701325,0.0068591437,-0.11280063,-0.20786871,-0.2257758,-0.24790657]",1,74,175,"[1.589186803727e+12,1.589186803766e+12,1.589186803808e+12,1.589186803849e+12,1.589186803891e+12,1.589186803934e+12,1.589186803975e+12,1.589186804016e+12,1.589186804058e+12,1.589186804099e+12,1.589186804141e+12,1.589186804182e+12,1.589186804224e+12,1.589186804265e+12,1.589186804307e+12,1.589186804348e+12,1.589186804388e+12,1.589186804429e+12,1.589186804472e+12,1.589186804514e+12,1.589186804557e+12,1.589186804599e+12,1.589186804641e+12,1.589186804684e+12,1.589186804727e+12,1.589186804768e+12,1.58918680481e+12,1.589186804852e+12,1.589186804893e+12,1.589186804935e+12,1.589186804976e+12,1.589186805018e+12,1.58918680506e+12,1.589186805102e+12,1.589186805143e+12,1.589186805185e+12,1.589186805227e+12,1.589186805268e+12,1.589186805308e+12,1.58918680535e+12,1.58918680539e+12,1.589186805432e+12,1.589186805475e+12,1.589186805517e+12,1.589186805558e+12,1.5891868056e+12,1.589186805642e+12,1.589186805684e+12,1.589186805726e+12,1.589186805767e+12,1.589186805809e+12,1.589186805851e+12,1.589186805894e+12,1.589186805935e+12,1.589186805976e+12,1.589186806019e+12,1.589186806062e+12,1.589186806104e+12,1.589186806147e+12,1.589186806187e+12,1.589186806229e+12,1.589186806275e+12,1.589186806314e+12,1.589186806356e+12,1.589186806398e+12,1.58918680644e+12,1.589186806482e+12,1.589186806523e+12,1.589186806564e+12,1.589186806607e+12,1.589186806649e+12,1.58918680669e+12,1.589186806732e+12,1.589186806773e+12,1.589186806814e+12,1.589186806856e+12,1.589186806898e+12,1.58918680694e+12,1.589186806982e+12,1.589186807024e+12,1.589186807067e+12,1.589186807109e+12,1.589186807152e+12,1.589186807193e+12,1.589186807235e+12,1.589186807277e+12,1.589186807318e+12,1.589186807359e+12,1.589186807401e+12,1.589186807442e+12,1.589186807484e+12,1.589186807526e+12,1.589186807566e+12,1.589186807606e+12,1.589186807647e+12,1.58918680769e+12,1.589186807732e+12,1.589186807774e+12,1.589186807816e+12,1.589186807859e+12,1.5891868079e+12,1.589186807942e+12,1.589186807983e+12,1.589186808025e+12,1.589186808067e+12,1.589186808108e+12,1.58918680815e+12,1.589186808192e+12,1.589186808234e+12,1.589186808274e+12,1.589186808317e+12,1.589186808359e+12,1.5891868084e+12,1.589186808442e+12,1.589186808483e+12,1.589186808524e+12,1.589186808567e+12,1.589186808607e+12,1.589186808649e+12,1.58918680869e+12,1.589186808731e+12,1.589186808773e+12,1.589186808814e+12,1.589186808855e+12,1.589186808897e+12,1.589186808938e+12,1.58918680898e+12,1.589186809021e+12,1.589186809063e+12,1.589186809103e+12,1.589186809146e+12,1.589186809187e+12,1.589186809226e+12,1.589186809267e+12,1.58918680931e+12,1.589186809351e+12,1.589186809394e+12,1.589186809435e+12,1.589186809476e+12,1.589186809517e+12,1.589186809559e+12,1.589186809601e+12,1.589186809648e+12]","[1.589186803727e+12,1.589186803766e+12,1.589186803808e+12,1.589186803849e+12,1.589186803891e+12,1.589186803934e+12,1.589186803975e+12,1.589186804016e+12,1.589186804058e+12,1.589186804099e+12,1.589186804141e+12,1.589186804182e+12,1.589186804224e+12,1.589186804265e+12,1.589186804307e+12,1.589186804348e+12,1.589186804388e+12,1.589186804429e+12,1.589186804472e+12,1.589186804514e+12,1.589186804557e+12,1.589186804599e+12,1.589186804641e+12,1.589186804684e+12,1.589186804727e+12,1.589186804768e+12,1.58918680481e+12,1.589186804852e+12,1.589186804893e+12,1.589186804935e+12,1.589186804976e+12,1.589186805018e+12,1.58918680506e+12,1.589186805102e+12,1.589186805143e+12,1.589186805185e+12,1.589186805227e+12,1.589186805268e+12,1.589186805308e+12,1.58918680535e+12,1.58918680539e+12,1.589186805432e+12,1.589186805475e+12,1.589186805517e+12,1.589186805558e+12,1.5891868056e+12,1.589186805642e+12,1.589186805684e+12,1.589186805726e+12,1.589186805767e+12,1.589186805809e+12,1.589186805851e+12,1.589186805894e+12,1.589186805935e+12,1.589186805976e+12,1.589186806019e+12,1.589186806062e+12,1.589186806104e+12,1.589186806147e+12,1.589186806187e+12,1.589186806229e+12,1.589186806275e+12,1.589186806314e+12,1.589186806356e+12,1.589186806398e+12,1.58918680644e+12,1.589186806482e+12,1.589186806523e+12,1.589186806564e+12,1.589186806607e+12,1.589186806649e+12,1.58918680669e+12,1.589186806732e+12,1.589186806773e+12,1.589186806814e+12,1.589186806856e+12,1.589186806898e+12,1.58918680694e+12,1.589186806982e+12,1.589186807024e+12,1.589186807067e+12,1.589186807109e+12,1.589186807152e+12,1.589186807193e+12,1.589186807235e+12,1.589186807277e+12,1.589186807318e+12,1.589186807359e+12,1.589186807401e+12,1.589186807442e+12,1.589186807484e+12,1.589186807526e+12,1.589186807566e+12,1.589186807606e+12,1.589186807647e+12,1.58918680769e+12,1.589186807732e+12,1.589186807774e+12,1.589186807816e+12,1.589186807859e+12,1.5891868079e+12,1.589186807942e+12,1.589186807983e+12,1.589186808025e+12,1.589186808067e+12,1.589186808108e+12,1.58918680815e+12,1.589186808192e+12,1.589186808234e+12,1.589186808274e+12,1.589186808317e+12,1.589186808359e+12,1.5891868084e+12,1.589186808442e+12,1.589186808483e+12,1.589186808524e+12,1.589186808567e+12,1.589186808607e+12,1.589186808649e+12,1.58918680869e+12,1.589186808731e+12,1.589186808773e+12,1.589186808814e+12,1.589186808855e+12,1.589186808897e+12,1.589186808938e+12,1.58918680898e+12,1.589186809021e+12,1.589186809063e+12,1.589186809103e+12,1.589186809146e+12,1.589186809187e+12,1.589186809226e+12,1.589186809267e+12,1.58918680931e+12,1.589186809351e+12,1.589186809394e+12,1.589186809435e+12,1.589186809476e+12,1.589186809517e+12,1.589186809559e+12,1.589186809601e+12,1.589186809648e+12]","{""language"":""zh_CN"",""city"":""Wuxi"",""province"":""Jiangsu"",""country"":""China"",""avatarUrl"":""https://wx.qlogo.cn/mmopen/vi_32/TkutvetqnTpaBg7Z3rYt4LoiaJFw9u5vSUEYpickKhs1N1RSxUuqqZoPAziaS0foakJh5ibdxxxQXWlUtdtuAxVfug/132"",""nickName"":""Simplify"",""gender"":1.0}"
"[0.19007854,0.11564569,0.060690142,0.035379596,0.06463387,0.08888905,0.114845075,0.016400281,0.022539016,-0.0707228,0.0002624045,-0.039043684,-0.04156813,-0.014112383,0.07568934,-0.032536242,-0.026238535,-0.048865654,-0.025531765,0.012267889,-0.06283918,0.024211125,0.014089398,0.0065706475,0.026658958,0.001883758,0.004866933,-0.032360032,-0.0095863845,-0.0260221,-0.025911007,-0.028270733,-0.012344504,0.003044467,-0.013647908,0.026152343,0.028799374,0.039608717,-0.04974193,-0.042510487,0.015309483,0.04521785,0.082560696,0.1115765,0.012419203,0.06639408,0.029697677,0.08489935,0.03013534,0.07862558,0.043440394,0.0431981,0.08357296,0.13166864,0.08708956,0.05169465,0.029124027,0.12318168,0.14789079,0.04615446,0.12902735,0.08773408,0.096342675,0.034609623,0.004798938,0.0032360032,-0.055228483,-0.023620237,-0.018033128,-0.10314125,-0.09145659,-0.17644404,-0.034749445,-0.110212766,-0.025868868,-0.068790205,-0.0813904,-0.018435353,-0.10516004,0.018211257,0.019537644,-0.24086723,-0.1131222,-0.14866076,-0.03742329,-0.027251761,-0.05467878,-0.029453471,-0.019218737,-0.056075078,-0.067555755,-0.06640174,-0.05363012,-0.064386785,-0.04530979,-0.0305481,-0.076760024,-0.053212564,-0.066325136,-0.08640866,-0.06991644,-0.025031859,-0.05024472,0.00040414123,0.0023309947,-0.012520717,-0.017203774,-0.0016701951,-0.018636465,-0.022483468,0.06718226,0.018284997,-0.008156566,0.026232788,0.0103697665,0.05298273,0.03101353,0.08249174,-0.0245693,-0.0072017587,0.06418951,0.10451361,0.018939093,0.022287143,0.030069256,-0.04083646,-0.031995155,-0.022904849,-0.04570627,-0.05259774,-0.0687088,-0.09468876,-0.099864066,-0.09032461,-0.104274176,-0.15792826,-0.21769325,-0.090326525,-0.051835425,-0.039716937,0.037927985,-0.13263206,-0.1103727,-0.118889354,-0.056860376]","[-0.0532413,-0.08403839,-0.09389963,-0.089990385,-0.0629359,-0.054471917,-0.051310617,-0.08724854,-0.07483796,-0.08018468,-0.07476709,-0.017898094,0.001751598,-0.012260227,-0.03651445,-0.041040447,-0.052527826,-0.025266489,-0.0037330396,0.02084392,0.024226448,0.029328968,0.028607836,0.05656541,0.065812774,0.06655115,0.04662564,0.045390233,0.039795462,0.051685072,0.05012692,0.02953679,0.027706658,0.022055386,0.008312669,-0.00082360534,-0.0044196965,-0.019404527,0.0037186742,0.021154208,0.021036413,0.09054584,0.057805605,0.10606408,0.09793243,0.06007818,0.0359906,0.032844618,-0.0007718906,-0.0011789049,-0.012983276,-0.002179681,-0.014873738,-0.021318931,-0.02898612,0.00043861778,0.0075264117,0.003293464,0.03461441,0.08167101,0.05068333,0.047045104,0.036492422,0.023931483,0.018128896,-0.0023204603,0.03950337,0.033934455,0.04092361,0.008300218,-0.0035185188,-0.00022122424,0.008702444,0.04730751,0.028356925,0.015762467,6.320693e-05,0.036181174,0.03352361,0.042433877,0.028509194,0.082718715,-0.025258828,0.022560084,0.036703113,-0.0017659633,-0.012999557,-0.0099627515,-0.017531302,0.006376238,-0.026490405,-0.00935654,0.022987211,0.015554649,0.009280884,0.005164772,-0.0126749035,-0.021543028,-0.022727678,0.018414285,-0.008523358,0.029422825,-0.0069364817,0.0037885848,-0.021382136,-0.027431805,-0.016319837,-0.03058545,-0.033505417,0.0034984075,0.00039552213,-0.0088480115,0.014322114,-0.020887973,-0.00037349545,0.0054243035,-0.024670811,-0.037637807,-0.016567875,-0.027177062,-0.0023922862,0.03183235,0.02678537,0.00848122,0.02321801,0.00253115,0.034734122,0.039749496,0.039988913,0.017849252,-0.006754522,-0.010868718,-0.02209178,-0.0094800815,-0.00613586,-0.033104148,-0.02140608,-0.03460675,0.0296067,0.047358267,0.014225389,-0.01903103,-0.016281528,-0.03412216,-0.016163735]","[1.2191179,1.089854,1.180871,1.2655387,1.2833265,1.3643683,1.2514923,1.2116768,0.8356435,1.1216317,1.2640513,1.0516195,0.77203906,0.91774064,0.863217,0.62799436,0.69934344,0.7701639,0.8378643,0.7103213,0.88859546,0.7741536,0.8985468,0.82779616,0.90041333,0.8595482,1.0429075,1.0567452,1.0159354,0.9741643,0.94488126,0.9186619,0.86371976,0.8327981,0.8235086,0.9144912,0.8588567,0.84834325,0.91147643,0.83990896,0.6898825,0.5826089,1.0009744,0.90684116,0.98136026,0.9584986,1.0236726,0.81245124,1.1334659,0.96729004,1.0990775,1.1016009,1.0423291,1.1687267,1.3340185,1.1005187,1.1564482,1.1734203,1.1090355,1.3048638,1.436455,1.3104769,1.236472,1.3067753,1.2748606,1.2631185,1.2965952,1.2575305,1.052563,1.1122005,1.0146158,1.1322677,1.0180864,0.988924,0.9300698,0.8189233,0.99908125,0.82368106,0.7525991,0.71126467,0.60978496,0.5383123,0.82263625,0.7907033,0.7298523,0.8194251,0.9639611,1.0553296,0.9673379,0.9482523,1.0079225,1.0714254,0.9525954,0.91478616,0.8846852,0.8454836,0.85313064,0.84490615,0.8923621,0.8308991,0.7907244,0.7057149,0.95789623,0.7615764,0.76026344,0.812411,0.7752129,0.80269444,1.0644495,0.9676377,1.1135212,1.2702897,1.168855,1.3024696,1.118933,1.1424172,1.2601507,1.2263696,1.1239455,1.1148121,1.1823257,1.1258409,1.2758174,1.19823,1.1653432,1.1566617,1.3669293,1.3331307,1.232425,1.2068961,1.228509,1.127012,1.1376624,1.0070366,0.92130697,0.914904,0.9140814,0.92322433,0.7220999,0.83825123,0.76349366,0.81760836,0.64911306,0.69419974,0.7798806]","[0.016126841,0.18449876,0.07063347,0.17079791,-0.12976523,-0.20772909,-0.7792546,0.48216465,0.5217138,-0.23729496,-0.5287824,0.1905725,-0.015515977,-0.23643975,0.3564486,0.5238431,0.6039537,0.11402236,0.56314796,0.19783308,0.33859387,-0.09937905,-0.038624138,-0.10028662,0.21636847,-0.01298525,-0.1817935,-0.12124802,-0.13870132,-0.17030923,-0.22188371,-0.12248721,0.045169123,0.25038493,0.14777702,0.31867966,0.30335566,0.088784896,-0.54147094,-0.39004618,0.42109558,-0.18592992,-0.11993903,-0.30410618,-0.24455553,-0.59695494,0.3076841,-0.21907373,0.12618731,0.037437312,-0.0320617,0.30609584,0.3736401,-0.28176597,-0.06295402,-0.06904522,-0.16664404,0.30609584,0.37002724,0.021205751,-0.23760912,0.038955748,-0.048781954,-0.05551892,0.0765676,-0.046565384,-0.26672122,0.15156439,0.018221237,0.24876177,-0.079220496,-0.10859439,-0.08283333,-0.03450516,0.36344737,-0.03820526,-0.10517354,-0.19725712,-0.33751178,-0.16317083,0.37021923,-0.16219345,-0.3883532,-0.094387405,0.121474914,0.19458675,-0.17807594,-0.055204764,0.15430456,0.13421582,-0.16196655,-0.13269739,-0.116937056,-0.14660765,-0.008342674,0.12679817,0.13496631,-0.08428195,-0.18483037,-0.050195668,0.46692795,-0.32918656,-0.107058495,-0.017627826,-0.24884905,-0.06740461,0.23862141,-0.18427186,0.3146654,0.33470178,-0.16514306,-0.0068242373,-0.39701006,-0.028850293,0.2952748,0.16887806,-0.25930357,-0.0760789,0.14365806,0.13088223,0.38922587,-0.054157566,-0.1702045,-0.010227629,0.45235443,0.077178456,-0.20931734,-0.2355671,-0.079796456,-0.25373596,-0.1537635,-0.26244515,-0.13446017,0.16413076,0.21764256,0.23411846,-0.2256187,0.15421729,-0.11114257,0.2756573,-0.14536847,0.098995075,0.17348573,-0.18985692]","[0.07834783,0.07688175,0.22497293,0.21938789,0.23912756,-0.07087782,0.32642892,0.22547908,0.024940755,0.044750243,0.17868681,0.129102,0.32464868,0.24504423,0.39824924,0.5718222,0.3018547,0.23410101,-0.11655309,-0.07344346,-0.14456563,-0.13543755,-0.121876344,0.02232276,-0.11746066,-0.063180916,0.052167892,-0.049165923,-0.040160026,-0.022008602,0.07094763,0.05445427,-0.009791297,-0.14002776,-0.111910515,-0.2629862,-0.5696929,-0.6247755,-0.36466908,-0.013351769,-0.19013616,0.11461577,-0.021013765,-0.033772122,-0.12002629,0.1553692,-0.48101273,0.10412634,-0.04024729,-0.079813905,0.023876105,0.05108579,-0.13681635,0.19540706,0.001972222,0.12500048,0.28386036,0.17926277,0.21383774,0.2496519,0.283808,0.099239424,0.18413223,0.18846065,0.18472564,0.100234255,0.3086615,0.17863445,0.30602604,0.23626523,0.4089132,0.29354692,0.45211008,0.48324677,0.50989795,0.25764552,0.049532443,-0.00057595863,-0.029984757,0.15472344,-0.4464552,-0.40252528,-0.14666001,-0.20326105,-0.056793015,-0.07515388,-0.040561453,0.05518731,-0.009948377,-0.008901179,0.06021386,0.060161497,0.022567106,0.114790305,0.094055794,-0.031468287,-0.17791887,-0.26745427,-0.31869712,-0.32213542,-0.65725607,-0.28820622,-0.297631,-0.41465533,-0.003944444,-0.10576695,-0.14611897,0.21622884,-0.16442747,-0.11709414,0.16933185,-0.34074062,-0.08274606,0.07885397,-0.038083084,-0.068940505,0.013508848,0.12203342,0.038152896,0.09862856,-0.016196655,0.22245966,0.17322393,0.3790855,0.19148007,0.13322099,0.3371278,0.3673918,0.26031587,0.34096754,0.11517428,0.2070135,0.20568705,0.28110272,0.33351496,0.32960543,0.13135348,0.0707382,0.1733461,-0.33635986,-0.10143854,-0.37952185,-0.5013633,-0.14376277]","[0.1497667,0.06948156,-0.0017453292,0.0072954763,0.0048520155,0.09616764,0.11473794,0.10346312,-0.10691887,-0.08272861,-0.04113741,-0.11986921,-0.07916813,0.15011577,0.08662069,0.12561135,-0.009424778,-0.11295771,-0.022357667,-0.09983283,-0.050754175,-0.04888667,-0.07384488,0.04405211,0.039950587,0.09950122,0.063093655,0.039252456,0.041346848,0.07543313,0.067282446,0.01829105,0.037594393,0.0043284167,0.03906047,0.06482153,0.1523847,0.019390607,-0.12112585,-0.28071874,-0.26005405,-0.22563617,-0.09522516,-0.03790855,0.032899458,0.11960741,-0.0027576203,0.04235914,0.036617007,-0.034313172,-0.003979351,-0.06295402,-0.027070057,0.032288592,-0.020210912,-0.13746212,-0.13273229,-0.07962192,-0.10803588,-0.022060962,0.085329145,0.06424557,0.1364324,0.11358603,0.10067059,0.09522516,0.1865757,0.2526015,0.16676621,0.11409217,-0.072117,0.03265511,-0.009267698,0.20982349,-0.111840695,-0.081786126,0.020961404,-0.14168583,0.21863739,0.51438344,0.059934605,0.067788586,-0.1751438,-0.12625712,-8.726646e-05,-0.07691666,-0.071157075,0.03728023,0.054995324,-0.007347836,-0.038467057,-0.033475414,-0.06323328,-0.104248516,-0.058904864,-0.011484266,-0.06822492,-0.13379695,-0.07661995,-0.11695451,-0.040526547,-0.010506882,-0.023945916,-0.029810224,0.0113446405,-0.00040142573,-0.12754866,0.0029146997,-0.15505505,-0.010349803,0.04675737,-0.013456488,0.014660765,-0.0035081117,-0.015760323,-0.0064751715,0.03689626,-0.008080875,-0.075520396,-0.09623746,-0.024836035,0.02581342,0.00710349,0.10766936,-0.061714843,-0.034435347,0.037978366,0.045832347,0.09546951,0.04564036,-0.00720821,-0.0009250245,0.022985986,0.08168141,0.05841617,-0.22516492,-0.1857903,-0.09765117,0.059882246,0.21715386,0.15325736,0.11456341,-0.06501351,0.0071907565]",1,74,175,"[1.58918704168e+12,1.589187041705e+12,1.589187041726e+12,1.589187041768e+12,1.58918704181e+12,1.589187041852e+12,1.589187041894e+12,1.589187041937e+12,1.589187041978e+12,1.58918704202e+12,1.589187042062e+12,1.589187042103e+12,1.589187042145e+12,1.589187042186e+12,1.589187042231e+12,1.589187042274e+12,1.589187042316e+12,1.58918704236e+12,1.589187042401e+12,1.589187042451e+12,1.589187042492e+12,1.589187042533e+12,1.589187042574e+12,1.589187042615e+12,1.589187042657e+12,1.589187042699e+12,1.589187042742e+12,1.589187042784e+12,1.589187042826e+12,1.589187042869e+12,1.58918704291e+12,1.589187042954e+12,1.589187042995e+12,1.589187043036e+12,1.58918704308e+12,1.589187043121e+12,1.589187043163e+12,1.589187043206e+12,1.589187043248e+12,1.589187043289e+12,1.589187043331e+12,1.589187043373e+12,1.589187043416e+12,1.589187043458e+12,1.5891870435e+12,1.589187043542e+12,1.589187043584e+12,1.589187043626e+12,1.589187043667e+12,1.589187043708e+12,1.589187043749e+12,1.58918704379e+12,1.589187043832e+12,1.589187043873e+12,1.589187043914e+12,1.589187043956e+12,1.589187043998e+12,1.58918704404e+12,1.589187044081e+12,1.589187044122e+12,1.589187044165e+12,1.589187044205e+12,1.589187044227e+12,1.589187044269e+12,1.589187044309e+12,1.58918704435e+12,1.589187044392e+12,1.589187044433e+12,1.589187044476e+12,1.589187044517e+12,1.589187044559e+12,1.5891870446e+12,1.589187044642e+12,1.589187044683e+12,1.589187044724e+12,1.589187044765e+12,1.589187044806e+12,1.589187044848e+12,1.589187044889e+12,1.589187044931e+12,1.589187044972e+12,1.589187045013e+12,1.589187045055e+12,1.589187045096e+12,1.589187045139e+12,1.589187045181e+12,1.589187045222e+12,1.589187045266e+12,1.589187045307e+12,1.58918704535e+12,1.589187045392e+12,1.589187045434e+12,1.589187045476e+12,1.589187045519e+12,1.589187045561e+12,1.589187045604e+12,1.589187045645e+12,1.589187045688e+12,1.589187045729e+12,1.589187045771e+12,1.589187045813e+12,1.589187045855e+12,1.589187045898e+12,1.58918704594e+12,1.589187045981e+12,1.589187046021e+12,1.589187046063e+12,1.589187046105e+12,1.589187046146e+12,1.589187046193e+12,1.589187046234e+12,1.589187046276e+12,1.589187046318e+12,1.589187046359e+12,1.589187046401e+12,1.589187046441e+12,1.589187046483e+12,1.589187046525e+12,1.589187046567e+12,1.589187046608e+12,1.589187046649e+12,1.589187046693e+12,1.589187046734e+12,1.589187046778e+12,1.58918704682e+12,1.589187046861e+12,1.589187046902e+12,1.589187046943e+12,1.589187046984e+12,1.589187047025e+12,1.589187047067e+12,1.58918704711e+12,1.589187047151e+12,1.589187047192e+12,1.589187047235e+12,1.589187047276e+12,1.589187047318e+12,1.589187047359e+12,1.589187047402e+12,1.589187047444e+12,1.589187047486e+12,1.589187047527e+12,1.589187047569e+12,1.58918704761e+12,1.589187047653e+12]","[1.589187041705e+12,1.589187041726e+12,1.589187041768e+12,1.58918704181e+12,1.589187041852e+12,1.589187041894e+12,1.589187041937e+12,1.589187041978e+12,1.58918704202e+12,1.589187042062e+12,1.589187042103e+12,1.589187042145e+12,1.589187042186e+12,1.589187042231e+12,1.589187042274e+12,1.589187042316e+12,1.58918704236e+12,1.589187042401e+12,1.589187042451e+12,1.589187042492e+12,1.589187042533e+12,1.589187042574e+12,1.589187042615e+12,1.589187042657e+12,1.589187042699e+12,1.589187042742e+12,1.589187042784e+12,1.589187042826e+12,1.589187042869e+12,1.58918704291e+12,1.589187042954e+12,1.589187042995e+12,1.589187043036e+12,1.58918704308e+12,1.589187043121e+12,1.589187043163e+12,1.589187043206e+12,1.589187043248e+12,1.589187043289e+12,1.589187043331e+12,1.589187043373e+12,1.589187043416e+12,1.589187043458e+12,1.5891870435e+12,1.589187043542e+12,1.589187043584e+12,1.589187043626e+12,1.589187043667e+12,1.589187043708e+12,1.589187043749e+12,1.58918704379e+12,1.589187043832e+12,1.589187043873e+12,1.589187043914e+12,1.589187043956e+12,1.589187043998e+12,1.58918704404e+12,1.589187044081e+12,1.589187044122e+12,1.589187044165e+12,1.589187044205e+12,1.589187044227e+12,1.589187044269e+12,1.589187044309e+12,1.58918704435e+12,1.589187044392e+12,1.589187044433e+12,1.589187044476e+12,1.589187044517e+12,1.589187044559e+12,1.5891870446e+12,1.589187044642e+12,1.589187044683e+12,1.589187044724e+12,1.589187044765e+12,1.589187044806e+12,1.589187044848e+12,1.589187044889e+12,1.589187044931e+12,1.589187044972e+12,1.589187045013e+12,1.589187045055e+12,1.589187045096e+12,1.589187045139e+12,1.589187045181e+12,1.589187045222e+12,1.589187045266e+12,1.589187045307e+12,1.58918704535e+12,1.589187045392e+12,1.589187045434e+12,1.589187045476e+12,1.589187045519e+12,1.589187045561e+12,1.589187045604e+12,1.589187045645e+12,1.589187045688e+12,1.589187045729e+12,1.589187045771e+12,1.589187045813e+12,1.589187045855e+12,1.589187045898e+12,1.58918704594e+12,1.589187045981e+12,1.589187046021e+12,1.589187046063e+12,1.589187046105e+12,1.589187046146e+12,1.589187046193e+12,1.589187046234e+12,1.589187046276e+12,1.589187046318e+12,1.589187046359e+12,1.589187046401e+12,1.589187046441e+12,1.589187046483e+12,1.589187046525e+12,1.589187046567e+12,1.589187046608e+12,1.589187046649e+12,1.589187046693e+12,1.589187046734e+12,1.589187046778e+12,1.58918704682e+12,1.589187046861e+12,1.589187046902e+12,1.589187046943e+12,1.589187046984e+12,1.589187047025e+12,1.589187047067e+12,1.58918704711e+12,1.589187047151e+12,1.589187047192e+12,1.589187047235e+12,1.589187047276e+12,1.589187047318e+12,1.589187047359e+12,1.589187047402e+12,1.589187047444e+12,1.589187047486e+12,1.589187047527e+12,1.589187047569e+12,1.58918704761e+12,1.589187047653e+12]","{""language"":""zh_CN"",""city"":""Wuxi"",""province"":""Jiangsu"",""country"":""China"",""avatarUrl"":""https://wx.qlogo.cn/mmopen/vi_32/TkutvetqnTpaBg7Z3rYt4LoiaJFw9u5vSUEYpickKhs1N1RSxUuqqZoPAziaS0foakJh5ibdxxxQXWlUtdtuAxVfug/132"",""nickName"":""Simplify"",""gender"":1.0}"
"[-0.19279166,-0.11355506,-0.10176506,-0.02256583,0.016525738,-0.020526927,-0.07893587,-0.11819216,-0.103951454,-0.07982747,-0.05175402,0.00051235914,-0.06364459,-0.085715294,-0.050264828,-0.0361716,-0.048474923,0.045133576,0.10141359,0.07719003,0.12854277,0.029664159,0.114972435,0.20596266,0.0,0.1950604,0.09602856,0.19352524,0.32811385,0.2664938,0.38914108,0.14721373,0.28667215,0.271875,0.27117974,0.35592395,0.15923357,0.22634976,0.11620881,0.22890678,0.13457137,0.07932852,-0.05386858,-0.041929174,0.16579369,-0.109246455,-0.07260464,-0.18539645,-0.12444103,-0.18742481,-0.066948585,-0.103463985,-0.12919304,-0.12545809,-0.07050063,-0.07269467,-0.044436384,-0.09358551,-0.08751477,-0.16891381,-0.12128643,-0.11100668,-0.06829029,-0.084535435,-0.062686905,-0.09145563,-0.12276125,-0.08412458,-0.08964179,-0.091420196,-0.05067567,-0.07366001,-0.030671641,-0.0373936,-0.015075808,0.09630246,0.09520878,-0.05328823,0.14784196,-0.022637656,0.06596025,0.06529276,0.06865517,-0.0043181824,-0.012066776,0.020820934,0.043003693,0.004986643,-0.030068303,-0.058570795,-0.059217226,0.021635924,-0.2241873,0.046869848,-0.049695965,-0.107979454,-0.13173184,-0.12442379,-0.24685848,-0.16663261,-0.17737684,-0.11129208,-0.119896844,-0.18936029,-0.12721926,-0.094426356,-0.025344063,-0.10242681,-0.08640866,-0.07374524,-0.036015496,-0.030136293,-0.025589228,0.007674853,-0.0372375,-0.051320188,-0.058301687,-0.06279704,0.018875886,9.7683434e-05,-0.13488358,-0.08409969,-0.085096635,-0.021733606,-0.101339854,-0.007691134,-0.09958442,-0.012962209,-0.00046255975,0.0007718906,0.004114196,0.03084498,0.06162579,-0.09559473,0.036929123,0.11275158,-0.12705357,0.13018711,-0.0032245112,-0.029477412,-0.07162781,-0.006677908,-0.056841224,-0.076626904,-0.047885947]","[0.016730681,0.04841938,-0.023052331,0.002896984,-0.015094005,-0.04390008,-0.028633695,-0.06266679,-0.017930655,-0.042279687,0.0035137304,-0.001307234,0.06821368,0.06369534,0.06661723,0.073009744,0.053210657,0.060465086,0.02241356,0.08072003,-0.016714402,0.057293247,0.017707516,0.02652967,0.032761298,0.008081867,-0.0483533,-0.036797922,0.012718956,0.013051273,-0.027857015,-0.0276741,-0.063418575,0.018286912,0.02465932,-0.075176015,-0.04289835,-0.07261805,0.017886603,0.0065036095,0.099577725,-0.031445444,0.048153143,-0.003878607,0.002846227,0.0027533318,0.03812718,0.027400201,-0.010345824,-0.0027571626,0.03753055,0.06698401,0.018414285,0.044906605,-0.019541476,0.00062440784,-0.031878315,0.020278888,-0.013263878,0.0050488925,0.009163089,0.037774757,0.051568232,0.04171657,0.047274947,0.053405065,0.06049764,0.039475597,0.03486724,0.05126369,0.06130593,0.08940428,0.0589213,0.059874196,0.059256494,0.1240206,0.111646414,0.05662191,-0.0070111803,0.0370632,0.014308706,0.029027302,0.008841308,0.05399978,0.03439031,0.074302614,0.033173103,0.054575346,0.050976384,0.03383869,0.077238865,0.053294927,0.031968337,0.036101688,0.032948047,0.021023005,0.0039274488,-0.010002017,0.022718102,0.0050374004,0.025634238,0.048475884,0.049123272,0.044184513,0.020686861,0.048383944,0.056738753,0.08699858,0.024317427,0.0048018107,0.005257667,0.028845344,0.016804423,0.037280597,0.021283496,0.013359645,-0.016122553,-0.005431965,0.00914202,-0.0038498763,-0.017000748,0.015354494,0.05491341,0.046091255,0.06509068,0.09643653,0.07900674,0.06404106,0.049343538,0.055639334,0.016812084,0.07011084,0.08498171,0.03601454,0.049642336,0.10590128,0.103012934,0.14709495,0.10700549,0.06393476,0.028400978,0.10722767,0.08496543,0.060025513,0.036011666]","[0.88373053,0.8714654,1.0169985,0.8779337,0.86357605,1.0664569,1.058784,1.0573331,0.8382723,0.87129307,0.7943454,0.92772543,0.8917961,0.7831836,0.69504344,0.9780965,1.0047038,0.92995197,0.9147765,0.81131923,0.94736177,1.041157,0.9490558,0.96752274,0.96591866,0.9458486,1.0142356,1.1873622,1.1946319,1.090038,1.013159,1.1669971,0.92824733,1.0685025,1.2183537,1.4524224,1.1188066,1.05566,1.1883688,1.0854986,1.0557472,1.4674895,0.9122195,1.2402128,0.90058374,1.2189399,0.7767652,1.1109134,0.8288191,0.90654534,0.67522615,0.93765366,0.8318011,0.60202014,0.663803,0.7566434,1.0597024,0.968218,0.9090679,0.9367151,1.1101406,0.9868392,0.83292073,0.83971643,0.80576956,0.7920211,0.7617737,0.6596821,0.8573655,0.78078073,0.943416,0.99368274,0.7405687,0.8719654,0.88191855,1.0687735,1.0960387,0.9908883,0.9590616,1.1069591,1.0014055,1.1120799,1.347813,1.2035921,1.3994502,1.3049252,1.20676,1.3116663,1.3825529,1.1108177,1.0992364,1.1769025,1.1886234,1.3140566,1.117396,1.2220436,1.1959211,1.2719167,1.1443193,1.1739067,0.986956,0.9126371,0.6873734,0.7603046,0.8635904,0.8687974,0.7460687,0.6544943,0.6718015,0.6856582,0.6855711,0.7848193,0.9315283,1.0479842,0.991639,0.82960624,0.8524977,0.86426944,0.73947895,0.7176217,0.9278968,0.7369956,0.7873169,0.7845866,0.83287954,0.88104516,0.88157284,0.8331822,0.82103693,0.80430716,0.97683907,1.0294818,1.0921257,1.1726867,1.033054,1.3138373,1.3642553,1.3248334,1.141224,1.3806489,1.48056,1.1488874,1.1552235,1.3188736,1.2810597]","[0.23636994,0.26188666,-0.43860123,-0.3892957,0.08360127,0.10697123,-0.046146505,-0.37236598,0.08018043,0.14739305,0.51002014,0.22773056,-0.23209389,-0.07763225,0.69998175,0.15521213,-0.23191935,-0.29932398,-0.39823177,0.11763519,-0.06421066,-0.52007324,-0.3446676,-0.0028797933,0.0043807765,0.35971236,0.27138126,0.06766641,-0.3310017,-0.30731758,-0.21291271,-0.8044571,-0.14885913,0.24214698,0.6392443,-0.4203102,0.059812434,0.5417502,0.21204005,0.39084902,0.7633721,-0.8982686,0.12927654,-0.5599016,0.1821251,-0.7444702,0.8619658,-0.08304276,0.037018433,-0.26876324,0.45992917,-0.18718657,-0.6969274,-0.04574508,0.44914302,0.9268746,-0.10464994,-0.30681142,-0.0035255651,0.4619363,0.005270894,-0.21425661,0.09121091,0.117425755,0.22436208,0.0782082,-0.15694001,0.31290263,-0.07538077,0.3315602,-0.030455995,-0.9686054,-0.26469663,0.107966065,0.3959454,0.14212216,-0.3379132,-0.25052455,0.17299703,-0.32354912,0.2366841,0.37582174,-0.32033774,0.06274459,-0.42627922,-0.38673005,0.31682962,0.27579692,-0.34117696,-0.15695746,0.035744343,0.120148465,0.14391986,-0.27047366,0.21570525,0.2724459,0.3984936,0.034435347,0.15512486,-0.38575268,-0.3567802,-0.56217057,0.197484,0.3466922,0.25768042,-0.03143338,-0.30782372,-0.23706807,-0.335941,-0.38027233,-0.0051487214,0.37283725,0.42779765,-0.043074727,-0.3241949,-0.0042586033,0.17929767,-0.038344882,0.31995377,0.69647366,-0.19837412,-0.054297194,-0.046303585,0.08714429,0.14269812,0.0879995,0.0024260078,-0.21443115,-0.11943288,0.16020377,0.010245083,0.22628194,0.12524483,-0.080965824,0.7485717,0.17793632,-0.34082788,-0.5789257,0.19545943,0.25385815,-0.51345843,-0.044872414,0.28399998,-0.038798667,-0.04803146]","[0.13829988,0.09763372,0.019792033,0.16331045,-0.085329145,0.026459191,-0.18484782,-0.04103269,-0.18580775,-0.09969321,-0.22321016,-0.16549212,-0.6769434,-0.34913567,-0.9020385,-0.74485415,-0.55957,-0.54613096,-0.5135457,-0.3471809,-0.72033226,-0.33995524,-0.10447541,-0.3872362,0.02698279,-0.3115762,-0.1701696,-0.17821556,-0.24450317,-0.19250982,-0.22268656,-0.046844635,0.26633725,0.12466887,0.10348057,0.07737044,0.43179446,-0.0538085,0.5566379,0.64908797,0.09801769,1.2402658,0.6865078,1.0144901,0.8144928,1.4585193,0.5596922,0.70303607,0.4016177,0.50413835,0.07105235,-0.13189453,0.32772046,0.13929473,-0.064489916,-0.41064107,-0.09327039,0.009302605,-0.04740314,-0.27838,-0.20900318,-0.03584906,-0.19245745,-0.1142318,-0.36157987,-0.45734608,-0.21303488,-0.56997216,-0.33403856,-0.37254053,-0.7206115,0.0026529005,-0.16983798,-0.27864182,-0.23900539,-0.5688901,-0.1447227,-0.19570377,-0.14245377,0.22272147,0.39711475,-0.058014743,0.4117057,-0.07307693,0.3546858,0.4935442,-0.0035255651,0.049043752,0.13241813,-0.017104227,0.09213593,0.33695325,0.32227504,0.43594834,0.3968355,0.4295779,0.1637817,0.29304078,0.3391873,0.098837994,0.3406359,0.15393804,0.12259193,-0.010838495,0.08798204,-0.28644344,-0.2639985,-0.28504717,-0.29827678,-0.20991075,-0.15198328,-0.07850491,-0.086725414,-0.2496519,0.07485717,-0.042952552,-0.0047996556,0.016022123,0.02565634,-0.4128402,0.009407325,-0.18877481,-0.2597748,-0.2754304,-0.43451717,-0.39182642,-0.39262927,-0.3997502,-0.1613906,-0.11618657,0.11362094,0.011885692,0.041835543,0.40135592,0.15763813,-0.13049826,0.40851176,0.4046895,0.49340457,-0.11234684,0.37753215,0.17221163,-0.2135934,0.083514005,-0.10273008]","[0.05893977,0.09642944,0.036075957,0.03769911,0.14480996,0.15924384,0.09229301,-0.011815879,-0.13601351,-0.2197195,-0.37765434,-0.3644073,-0.072972216,-0.030560715,0.080058254,0.19996238,0.12011356,0.13938199,-0.023980824,0.08841838,0.10114183,0.017784905,-0.07862708,0.062098816,-0.13400638,0.26785567,-0.081855945,0.020367993,0.07004006,0.08098327,0.24354324,0.026651178,-0.05368633,-0.08995427,0.07911578,0.16242033,-0.010210176,-0.24778439,-0.2541723,-0.074124135,-0.028274333,0.027593656,-0.18940313,-0.41711622,0.013107423,-0.033649947,-0.0909142,-0.08660324,0.0008901179,-0.11819369,-0.046739917,0.14985397,0.1969255,0.19650662,0.07480481,0.027995082,0.08402015,0.090181164,0.15044738,-0.14060372,-0.14454816,-0.13315117,-0.06806784,-0.06536258,-0.084177226,-0.03473205,-0.04972443,-0.110182635,-0.06405358,-0.12702507,-0.12390092,-0.0540703,-0.112975165,-0.14693926,-0.21928316,-0.012426744,0.22191861,-0.04881686,0.15517722,0.13590878,0.16311847,-0.028501227,0.056618482,-0.07836528,-0.065973446,-0.004066617,-0.022008602,-0.01569051,0.05953318,-0.05092871,-0.059515726,0.23464206,-0.21261601,0.13102187,0.10604621,0.12288863,0.065641835,0.16552703,-0.089343406,-0.06897541,-0.16027358,-0.09843657,-0.007400196,-0.105086274,-0.09791297,-0.0049916417,0.17194983,0.11707669,0.083095126,-0.022444934,-0.03296927,0.0070860367,-0.011239921,0.074717544,0.075206235,0.06846926,-0.08032005,-0.13082989,-0.0075572757,0.10587167,0.029216811,-0.1301492,-0.1439373,-0.11486012,-0.22102849,0.015254177,-0.12580334,-0.07189011,-0.06291912,-0.09705776,-0.14953981,-0.12744394,0.101211645,-0.10756464,-0.23692845,-0.041434117,-0.19039796,0.11725122,0.011780973,-0.044087015,-0.06883579,0.06424557,0.049532443,0.10103711,0.061348323]",1,74,175,"[1.589187155938e+12,1.589187155978e+12,1.589187156015e+12,1.589187156055e+12,1.589187156097e+12,1.589187156136e+12,1.589187156178e+12,1.58918715622e+12,1.589187156264e+12,1.589187156311e+12,1.589187156352e+12,1.589187156394e+12,1.589187156436e+12,1.589187156478e+12,1.589187156519e+12,1.589187156561e+12,1.589187156603e+12,1.589187156644e+12,1.589187156685e+12,1.589187156727e+12,1.589187156769e+12,1.589187156811e+12,1.589187156853e+12,1.589187156894e+12,1.589187156936e+12,1.589187156978e+12,1.589187157019e+12,1.589187157061e+12,1.589187157104e+12,1.589187157146e+12,1.589187157188e+12,1.58918715723e+12,1.589187157271e+12,1.589187157312e+12,1.589187157355e+12,1.589187157395e+12,1.589187157436e+12,1.589187157476e+12,1.589187157515e+12,1.589187157558e+12,1.589187157601e+12,1.589187157643e+12,1.589187157684e+12,1.589187157727e+12,1.589187157767e+12,1.589187157809e+12,1.58918715785e+12,1.589187157891e+12,1.589187157938e+12,1.58918715798e+12,1.58918715802e+12,1.589187158061e+12,1.589187158103e+12,1.589187158145e+12,1.589187158186e+12,1.589187158228e+12,1.58918715827e+12,1.589187158312e+12,1.589187158354e+12,1.589187158397e+12,1.589187158438e+12,1.589187158478e+12,1.589187158519e+12,1.589187158561e+12,1.589187158602e+12,1.589187158644e+12,1.589187158685e+12,1.589187158726e+12,1.589187158767e+12,1.589187158809e+12,1.589187158851e+12,1.589187158892e+12,1.589187158934e+12,1.589187158975e+12,1.589187159016e+12,1.589187159059e+12,1.5891871591e+12,1.589187159141e+12,1.589187159181e+12,1.589187159223e+12,1.589187159266e+12,1.589187159305e+12,1.589187159347e+12,1.589187159389e+12,1.589187159431e+12,1.589187159471e+12,1.589187159512e+12,1.589187159553e+12,1.589187159595e+12,1.589187159635e+12,1.589187159674e+12,1.589187159716e+12,1.589187159758e+12,1.589187159799e+12,1.58918715984e+12,1.589187159881e+12,1.589187159922e+12,1.589187159963e+12,1.589187160004e+12,1.589187160046e+12,1.589187160088e+12,1.58918716013e+12,1.589187160172e+12,1.589187160212e+12,1.589187160254e+12,1.589187160296e+12,1.589187160338e+12,1.58918716038e+12,1.589187160422e+12,1.589187160465e+12,1.589187160507e+12,1.589187160548e+12,1.58918716059e+12,1.58918716063e+12,1.589187160672e+12,1.589187160715e+12,1.589187160756e+12,1.589187160798e+12,1.589187160839e+12,1.589187160882e+12,1.589187160923e+12,1.589187160965e+12,1.589187161006e+12,1.589187161049e+12,1.58918716109e+12,1.589187161133e+12,1.589187161174e+12,1.589187161217e+12,1.589187161259e+12,1.5891871613e+12,1.589187161342e+12,1.589187161384e+12,1.589187161429e+12,1.589187161468e+12,1.589187161509e+12,1.58918716155e+12,1.589187161592e+12,1.589187161634e+12,1.589187161676e+12,1.589187161719e+12,1.58918716176e+12,1.589187161803e+12,1.589187161844e+12,1.589187161885e+12,1.589187161927e+12]","[1.589187155938e+12,1.589187155978e+12,1.589187156015e+12,1.589187156055e+12,1.589187156097e+12,1.589187156136e+12,1.589187156178e+12,1.58918715622e+12,1.589187156264e+12,1.589187156311e+12,1.589187156352e+12,1.589187156394e+12,1.589187156436e+12,1.589187156478e+12,1.589187156519e+12,1.589187156561e+12,1.589187156603e+12,1.589187156644e+12,1.589187156685e+12,1.589187156727e+12,1.589187156769e+12,1.589187156811e+12,1.589187156853e+12,1.589187156894e+12,1.589187156936e+12,1.589187156978e+12,1.589187157019e+12,1.589187157061e+12,1.589187157104e+12,1.589187157146e+12,1.589187157188e+12,1.58918715723e+12,1.589187157271e+12,1.589187157312e+12,1.589187157355e+12,1.589187157395e+12,1.589187157436e+12,1.589187157476e+12,1.589187157515e+12,1.589187157558e+12,1.589187157601e+12,1.589187157643e+12,1.589187157684e+12,1.589187157727e+12,1.589187157767e+12,1.589187157809e+12,1.58918715785e+12,1.589187157891e+12,1.589187157938e+12,1.58918715798e+12,1.58918715802e+12,1.589187158061e+12,1.589187158103e+12,1.589187158145e+12,1.589187158186e+12,1.589187158228e+12,1.58918715827e+12,1.589187158312e+12,1.589187158354e+12,1.589187158397e+12,1.589187158438e+12,1.589187158478e+12,1.589187158519e+12,1.589187158561e+12,1.589187158602e+12,1.589187158644e+12,1.589187158685e+12,1.589187158726e+12,1.589187158767e+12,1.589187158809e+12,1.589187158851e+12,1.589187158892e+12,1.589187158934e+12,1.589187158975e+12,1.589187159016e+12,1.589187159059e+12,1.5891871591e+12,1.589187159141e+12,1.589187159181e+12,1.589187159223e+12,1.589187159266e+12,1.589187159305e+12,1.589187159347e+12,1.589187159389e+12,1.589187159431e+12,1.589187159471e+12,1.589187159512e+12,1.589187159553e+12,1.589187159595e+12,1.589187159635e+12,1.589187159674e+12,1.589187159716e+12,1.589187159758e+12,1.589187159799e+12,1.58918715984e+12,1.589187159881e+12,1.589187159922e+12,1.589187159963e+12,1.589187160004e+12,1.589187160046e+12,1.589187160088e+12,1.58918716013e+12,1.589187160172e+12,1.589187160212e+12,1.589187160254e+12,1.589187160296e+12,1.589187160338e+12,1.58918716038e+12,1.589187160422e+12,1.589187160465e+12,1.589187160507e+12,1.589187160548e+12,1.58918716059e+12,1.58918716063e+12,1.589187160672e+12,1.589187160715e+12,1.589187160756e+12,1.589187160798e+12,1.589187160839e+12,1.589187160882e+12,1.589187160923e+12,1.589187160965e+12,1.589187161006e+12,1.589187161049e+12,1.58918716109e+12,1.589187161133e+12,1.589187161174e+12,1.589187161217e+12,1.589187161259e+12,1.5891871613e+12,1.589187161342e+12,1.589187161384e+12,1.589187161429e+12,1.589187161468e+12,1.589187161509e+12,1.58918716155e+12,1.589187161592e+12,1.589187161634e+12,1.589187161676e+12,1.589187161719e+12,1.58918716176e+12,1.589187161803e+12,1.589187161844e+12,1.589187161885e+12,1.589187161927e+12]","{""avatarUrl"":""https://wx.qlogo.cn/mmopen/vi_32/TkutvetqnTpaBg7Z3rYt4LoiaJFw9u5vSUEYpickKhs1N1RSxUuqqZoPAziaS0foakJh5ibdxxxQXWlUtdtuAxVfug/132"",""nickName"":""Simplify"",""gender"":1.0,""language"":""zh_CN"",""city"":""Wuxi"",""province"":""Jiangsu"",""country"":""China""}"
"[0.15104061,0.04898537,0.041516416,0.06796947,0.02146737,0.12758031,0.14102039,0.11036887,0.05885043,0.08551802,0.09504406,0.14361763,0.029647877,-0.004127604,-0.017783172,0.089772984,0.015570931,0.07280097,0.0077964785,0.06900281,0.07628597,0.27703786,0.07423557,0.22936931,0.14864641,0.28120285,0.21442182,0.36990896,0.2727082,0.297085,0.30602112,0.22641294,0.16336691,0.13671082,0.07628214,0.10696814,0.14528015,0.12022148,0.0026949137,0.09599216,0.08363043,-0.043598413,0.034562696,-0.004090254,-0.08124963,0.01343243,-0.04305445,0.06902867,-0.00713089,0.03596187,-0.04356777,-0.032015264,0.06279225,0.0767131,0.058109194,0.014979084,0.006970958,0.016381128,0.04185256,0.027733475,0.028014075,0.072959945,0.058530577,0.04593611,0.06839851,0.09428462,0.098683245,0.036652356,-0.008863335,0.052673392,0.08603324,0.1588821,0.1248289,0.055843316,0.118752405,0.21314523,0.17419349,0.34166598,0.3602728,0.26965415,0.22086222,0.28171614,0.28475296,0.52250385,0.24503121,0.24663916,0.36017126,0.2140809,0.21008162,0.18656291,0.20297372,0.20418134,0.1070687,0.107615545,0.03863188,-0.055276375,0.060939133,-0.12909056,0.034685276,-0.15505233,-0.10464098,0.012842497,0.06330844,0.18493006,-0.12769428,-0.07043454,-0.11889128,-0.04255071,-0.092792556,0.010309433,0.021098662,-0.061238892,-0.08545576,-0.01908562,-0.0029036878,-0.043315895,0.031115046,-0.07500364,0.02253327,-0.007425856,-0.086730435,-0.035781823,-0.09143073,0.021226035,-0.04354574,0.04981376,0.028080154,0.07729249,0.0359226,0.04946708,0.06851727,-0.02590622,0.045004286,0.07237385,0.008303092,0.26434284,0.16477087,0.0577539,0.06001689,0.06457737]","[-0.047466487,-0.06774825,-0.092263915,-0.13475811,-0.07332003,-0.04071196,-0.002486139,-0.024559721,-0.018093463,-0.035232116,-0.019599894,-0.015320976,-0.021071848,-0.016813999,0.018092502,0.008028237,-0.04844428,-0.067617044,-0.022539971,-0.11714159,-0.026771005,-0.080324516,-0.027828285,-0.05936279,-0.066100076,-0.06618436,-0.018644128,-0.08684344,-7.9487494e-05,-0.083774075,-0.07330471,-0.06553696,-0.035723403,-0.07171496,-0.06658466,-0.07866581,-0.056462936,-0.0834839,-0.09861429,-0.11251886,-0.12087079,-0.06320022,-0.0384346,-0.018896956,-0.041954074,0.045784798,0.013855724,0.028401935,-0.021939507,-0.015383224,-0.038267005,-0.07074866,-0.04622533,-0.019798134,-0.024006182,-0.018174864,-0.026671406,-0.02153728,-0.027577374,-0.015383224,-0.006883809,-0.019728223,-0.0005353435,-0.010929052,-0.0065725623,-0.026020184,-0.053543925,-0.033073504,-0.0161283,0.00026048915,0.015860151,-0.040892966,-0.017440323,-0.045079943,-0.06921925,-0.004075889,-0.012902832,-0.0087292595,-0.08132721,-0.039586686,-0.14046302,-0.040942766,-0.008754158,-0.08416577,-0.053956687,-0.10925796,-0.12616006,-0.051541418,-0.11422928,-0.102246776,-0.10788943,-0.041411072,-0.057863068,-0.02694722,-0.067074046,0.0040912116,-0.07447021,0.002788766,-0.029406542,-0.019069338,0.008297346,0.07739784,0.06339942,0.03305531,0.022124339,-0.08406234,-0.015635096,-0.036611177,0.023497652,-0.019264705,0.014193785,0.02712343,0.016914558,0.0005592855,-0.019399736,-0.011609963,-0.02791639,-0.021515254,-0.031070992,-0.0065821395,0.004423527,-0.05742349,0.006328354,0.0044493843,0.01667801,0.003898718,-0.0075254543,-0.0063475072,0.0071069477,-0.01334911,-0.01659852,0.010759542,0.009570102,-0.03350254,-0.046995305,-0.14176643,-0.08149575,-0.08272446,-0.10014467,-0.102612615]","[0.5814798,0.72143716,0.7908221,0.96437013,1.01459,1.0484688,0.94335955,0.91425073,0.8149144,0.765252,0.66939485,0.66047597,0.8175222,0.86758596,0.83497983,0.80328816,0.9677545,1.0941837,0.9770096,1.1646125,0.9317256,1.1771265,1.0354434,0.9600576,1.0732776,0.9827116,1.0042584,1.2571589,1.1813107,1.4660903,1.5491835,1.2462845,1.0811007,1.1038505,1.0109545,1.1636845,1.0689192,1.230681,1.3039483,1.1742228,1.029094,0.84997416,0.96176803,0.9817252,0.9373358,0.46571627,0.7493286,0.64321953,0.9926877,0.8285183,0.81396353,0.71288407,0.7917108,0.93612325,1.0763383,1.0447233,0.945454,0.89349985,0.94084656,0.9897362,0.91353256,0.91909474,0.8130881,0.87315,0.79130566,0.9435874,0.7872585,1.0307719,1.0038782,1.0928812,0.85056984,1.0064342,0.9211403,0.93881816,1.1160973,0.9532629,0.9799237,0.93896276,0.98423326,0.93457377,1.0020711,1.000555,1.1256876,1.3589509,1.0260131,1.339979,1.4084686,1.3388557,1.0979704,0.9993857,1.1828141,1.2600338,1.2036697,1.1810291,1.1452233,1.3019478,1.3596834,0.7564298,1.095919,0.8693959,0.8202208,0.85296595,0.7446982,0.5089201,0.48729283,0.7684382,0.8583213,0.89782274,0.91653204,1.0810415,1.0221968,0.9797476,0.88410205,0.83906233,0.8118575,0.87233704,0.8460477,0.8789851,0.92457265,0.7474228,0.8144442,0.85495216,0.7974798,0.93526137,0.9899861,0.90595055,0.97729313,0.99077815,0.9682478,0.9539094,0.962041,0.98500615,0.98784,0.9816352,0.9971247,1.2633302,1.0916325,1.1664044,1.2857045,1.394882]","[0.12016592,0.25562093,0.08662069,0.04145157,-0.124023095,0.008674286,-0.063006386,-0.06339036,-0.079150684,0.14379768,0.40971604,0.056531213,-0.5189213,-0.9267,-0.2766347,0.4089132,0.087790065,0.08223991,-0.3424336,0.38313466,0.020839231,-0.3545811,-0.13692108,-0.41821578,-0.14945254,0.10058332,-0.13948672,0.6585825,0.52681017,-0.5312433,-0.4245688,-0.036983527,-0.14168583,0.24570745,-0.044383723,0.4075344,0.23087215,-0.067701325,-0.3095516,-0.34088024,0.33297393,0.38008034,0.12650147,-0.71059334,0.429543,0.30363494,0.8237605,0.5076639,-0.26050785,-0.5389751,-0.1807812,0.27658233,0.34890878,-0.015498524,-0.31979668,-0.32299063,0.12732176,0.1359786,-0.048677232,0.078016214,-0.055780724,0.12728687,0.010192723,0.2955715,-0.2340661,0.5850693,0.19285887,0.009773844,-0.4949754,-0.070999995,-0.22877775,0.121038586,0.23701571,-0.3522947,-0.16406095,-0.1603783,-0.06726499,-0.20511109,-0.096202545,-0.21745057,0.07325147,-0.01425934,-0.7411017,0.28448868,0.4070108,0.1362753,-0.38849282,-0.33108896,0.017749999,0.41744784,0.020315632,-0.005323254,0.17081538,0.48474774,0.1922131,-0.7658505,0.379644,-0.2768441,0.38240165,0.40938443,-0.059515726,-0.47319368,-0.17297958,0.57082736,0.14322172,-0.20401153,-0.008744099,0.32988468,0.0742114,-0.0315381,-0.23912756,-0.13894565,-0.06941175,0.011292281,0.049549896,0.10618583,0.098820545,-0.3058166,0.038449604,-0.06372197,-0.18936822,0.22813198,0.10192723,-0.1725956,0.22329742,0.10801843,-0.09894271,-0.15913913,-0.2605253,-0.3559599,-0.42626175,-0.15906931,-0.062133722,0.33868113,-0.33396876,-0.10035643,0.09780825,0.13278465,0.096603975]","[0.20230111,-0.10742501,0.09271189,0.07220427,0.11601204,0.14475761,0.056688294,-0.042202063,0.18060666,-0.08354891,-0.38814378,-0.35074136,-0.39924407,0.15763813,-0.012793263,-0.5040336,-0.41086796,-0.7188662,-0.07881907,-0.8125031,-0.5791352,-0.30000463,-0.4455302,-0.058119465,0.110758595,-0.005969026,0.71359533,0.2974739,0.32381094,0.096272364,0.361161,0.08578293,0.40929717,0.33655185,0.50665164,0.286042,0.41619122,0.25501007,0.35632643,0.34522614,0.2896374,0.2777866,0.3700796,0.48272318,-0.012130038,0.29593801,-0.0742114,-0.35774013,-0.21757275,-0.2401224,0.053441983,-0.11780973,0.046041787,0.015149458,0.02167699,0.10676179,-0.009110618,0.035534903,0.08873254,-0.1767495,-0.16599827,-0.25556856,-0.22818434,-0.45437902,-0.09943141,-0.54337335,-0.36568138,-0.3431492,-0.42811182,-0.38735837,-0.39376372,-0.5297947,-0.68779933,-0.26597074,-0.5230403,-0.15315264,-0.5028119,-0.03705334,-0.11280063,0.22704989,0.2276782,0.09723229,0.6037094,0.2282367,0.173381,0.09414306,-0.023509584,0.20374973,0.3386637,0.54356533,0.6455973,0.8897514,0.68717104,0.87837183,0.4058065,0.96631896,0.21959732,1.02107,0.11721631,0.26497588,0.03726278,0.29525736,0.064908795,-0.0925199,-0.08689994,0.17713347,0.044715334,0.002042035,-0.11810643,-0.17085028,-0.11564551,-0.12625712,-0.0015009831,-0.049061205,0.007120943,-0.26267204,-0.28633872,-0.16718508,-0.33039084,-0.30789354,-0.06543239,-0.2754653,-0.21472786,-0.016004669,-0.4633151,-0.30003956,-0.22544418,-0.33946654,-0.2547308,-0.31785935,0.02438225,-0.25696483,0.20765927,-0.27724555,0.19460422,0.41531855,0.14744541,0.4509931,0.38498473]","[0.11856022,-0.11786208,-0.14149384,-0.22307053,-0.1545489,-0.05050983,-0.043825217,-0.10473721,-0.15723671,-0.20823523,-0.1635548,-0.1755103,-0.082047924,-0.13245304,-0.04309218,-0.13959143,-0.11154399,-0.07955211,-0.0095294975,-0.33635986,-0.010384709,-0.07295476,-0.12157963,-0.16524777,-0.13934709,-0.20718804,0.023631757,-0.07054621,0.025883233,0.1248434,0.15472344,0.115942225,0.11529645,-0.00057595863,0.011013027,0.08045968,0.18647097,-0.024644049,0.076672316,0.07716101,-0.11564551,0.029688051,0.17402677,0.03806563,0.08545132,0.07291985,0.21635102,-0.024574235,0.27436575,0.16561429,-0.026808258,-0.090355694,-0.03005457,-0.0020594886,-0.013788101,-0.052988198,-0.12175417,-0.04907866,-0.008621926,-0.07543313,0.019530235,0.009389872,0.008621926,-0.04621632,0.08386307,-0.094963364,-0.010367256,-0.079395026,0.0143117,-0.008796459,0.08094837,0.11657054,-0.01314233,-0.0051661744,0.049497537,-0.01839577,0.009180432,0.106150925,0.16231562,-0.15540412,-0.057770398,-0.22593287,0.2872463,0.06569419,-0.029059732,0.10311405,0.12604767,0.06033603,-0.07134906,-0.21650809,-0.034906585,-0.06314601,-0.00040142573,0.0009424778,-0.129294,0.17563248,-0.1312662,0.13370967,-0.19182913,-0.27762952,0.014782939,0.20378464,0.588141,0.17526597,0.110444434,0.021799162,-0.030298917,-0.16193165,-0.11794935,-0.006510078,0.014503686,-0.07164577,0.050335295,-0.021711895,-0.049532443,-0.017051866,-0.13091715,-0.030787608,-0.0344528,-0.063442715,-0.052918382,-0.18397516,-0.039095376,-0.051452305,-0.051330134,-0.07227408,-0.017749999,-0.042044982,-0.021589722,0.059411008,-0.051173054,-0.06387905,0.1309346,-0.21361084,0.09950122,0.09494591,-0.035116024,0.02794272,-0.03799582]",1,74,175,"[1.589376856768e+12,1.589376856802e+12,1.589376856843e+12,1.589376856885e+12,1.589376856927e+12,1.58937685697e+12,1.589376857012e+12,1.589376857053e+12,1.589376857097e+12,1.589376857137e+12,1.589376857181e+12,1.589376857227e+12,1.589376857268e+12,1.589376857312e+12,1.589376857354e+12,1.589376857399e+12,1.589376857452e+12,1.589376857495e+12,1.589376857558e+12,1.589376857594e+12,1.589376857637e+12,1.58937685768e+12,1.589376857722e+12,1.589376857763e+12,1.589376857811e+12,1.589376857849e+12,1.589376857891e+12,1.589376857933e+12,1.589376857976e+12,1.589376858019e+12,1.589376858064e+12,1.589376858104e+12,1.589376858149e+12,1.589376858201e+12,1.589376858242e+12,1.589376858283e+12,1.589376858326e+12,1.589376858374e+12,1.589376858417e+12,1.58937685846e+12,1.589376858502e+12,1.589376858545e+12,1.589376858586e+12,1.589376858627e+12,1.589376858693e+12,1.589376858744e+12,1.589376858776e+12,1.589376858819e+12,1.589376858862e+12,1.589376858902e+12,1.589376858926e+12,1.589376858969e+12,1.589376859009e+12,1.589376859051e+12,1.589376859093e+12,1.589376859135e+12,1.589376859176e+12,1.589376859233e+12,1.589376859274e+12,1.589376859316e+12,1.589376859358e+12,1.589376859401e+12,1.589376859443e+12,1.589376859488e+12,1.58937685953e+12,1.589376859579e+12,1.589376859622e+12,1.589376859663e+12,1.589376859706e+12,1.589376859748e+12,1.58937685979e+12,1.589376859831e+12,1.589376859873e+12,1.589376859915e+12,1.589376859959e+12,1.589376860003e+12,1.589376860045e+12,1.58937686009e+12,1.589376860133e+12,1.589376860174e+12,1.58937686022e+12,1.589376860263e+12,1.589376860305e+12,1.589376860347e+12,1.589376860389e+12,1.589376860431e+12,1.589376860473e+12,1.589376860516e+12,1.589376860558e+12,1.589376860602e+12,1.589376860645e+12,1.589376860686e+12,1.589376860728e+12,1.589376860769e+12,1.589376860812e+12,1.589376860855e+12,1.589376860897e+12,1.589376860938e+12,1.58937686098e+12,1.589376861025e+12,1.589376861066e+12,1.589376861111e+12,1.589376861155e+12,1.589376861195e+12,1.589376861237e+12,1.589376861279e+12,1.589376861325e+12,1.589376861362e+12,1.589376861405e+12,1.589376861446e+12,1.589376861491e+12,1.589376861532e+12,1.589376861576e+12,1.58937686162e+12,1.589376861661e+12,1.589376861703e+12,1.589376861744e+12,1.589376861788e+12,1.58937686183e+12,1.589376861873e+12,1.589376861915e+12,1.589376861956e+12,1.589376861998e+12,1.58937686204e+12,1.589376862082e+12,1.589376862123e+12,1.589376862165e+12,1.589376862207e+12,1.589376862252e+12,1.589376862295e+12,1.589376862336e+12,1.589376862379e+12,1.589376862424e+12,1.589376862463e+12,1.589376862505e+12,1.589376862547e+12,1.589376862589e+12,1.58937686263e+12,1.589376862671e+12,1.589376862713e+12]","[1.589376856802e+12,1.589376856843e+12,1.589376856885e+12,1.589376856927e+12,1.58937685697e+12,1.589376857012e+12,1.589376857053e+12,1.589376857097e+12,1.589376857137e+12,1.589376857181e+12,1.589376857227e+12,1.589376857268e+12,1.589376857312e+12,1.589376857354e+12,1.589376857399e+12,1.589376857452e+12,1.589376857495e+12,1.589376857558e+12,1.589376857594e+12,1.589376857637e+12,1.58937685768e+12,1.589376857722e+12,1.589376857763e+12,1.589376857811e+12,1.589376857849e+12,1.589376857891e+12,1.589376857933e+12,1.589376857976e+12,1.589376858019e+12,1.589376858064e+12,1.589376858104e+12,1.589376858149e+12,1.589376858201e+12,1.589376858242e+12,1.589376858283e+12,1.589376858326e+12,1.589376858374e+12,1.589376858417e+12,1.58937685846e+12,1.589376858502e+12,1.589376858545e+12,1.589376858586e+12,1.589376858627e+12,1.589376858693e+12,1.589376858744e+12,1.589376858776e+12,1.589376858819e+12,1.589376858862e+12,1.589376858902e+12,1.589376858926e+12,1.589376858969e+12,1.589376859009e+12,1.589376859051e+12,1.589376859093e+12,1.589376859135e+12,1.589376859176e+12,1.589376859233e+12,1.589376859274e+12,1.589376859316e+12,1.589376859358e+12,1.589376859401e+12,1.589376859443e+12,1.589376859488e+12,1.58937685953e+12,1.589376859579e+12,1.589376859622e+12,1.589376859663e+12,1.589376859706e+12,1.589376859748e+12,1.58937685979e+12,1.589376859831e+12,1.589376859873e+12,1.589376859915e+12,1.589376859959e+12,1.589376860003e+12,1.589376860045e+12,1.58937686009e+12,1.589376860133e+12,1.589376860174e+12,1.58937686022e+12,1.589376860263e+12,1.589376860305e+12,1.589376860347e+12,1.589376860389e+12,1.589376860431e+12,1.589376860473e+12,1.589376860516e+12,1.589376860558e+12,1.589376860602e+12,1.589376860645e+12,1.589376860686e+12,1.589376860728e+12,1.589376860769e+12,1.589376860812e+12,1.589376860855e+12,1.589376860897e+12,1.589376860938e+12,1.58937686098e+12,1.589376861025e+12,1.589376861066e+12,1.589376861111e+12,1.589376861155e+12,1.589376861195e+12,1.589376861237e+12,1.589376861279e+12,1.589376861325e+12,1.589376861362e+12,1.589376861405e+12,1.589376861446e+12,1.589376861491e+12,1.589376861532e+12,1.589376861576e+12,1.58937686162e+12,1.589376861661e+12,1.589376861703e+12,1.589376861744e+12,1.589376861788e+12,1.58937686183e+12,1.589376861873e+12,1.589376861915e+12,1.589376861956e+12,1.589376861998e+12,1.58937686204e+12,1.589376862082e+12,1.589376862123e+12,1.589376862165e+12,1.589376862207e+12,1.589376862252e+12,1.589376862295e+12,1.589376862336e+12,1.589376862379e+12,1.589376862424e+12,1.589376862463e+12,1.589376862505e+12,1.589376862547e+12,1.589376862589e+12,1.58937686263e+12,1.589376862671e+12,1.589376862713e+12]","{""language"":""zh_CN"",""city"":""Wuxi"",""province"":""Jiangsu"",""country"":""China"",""avatarUrl"":""https://wx.qlogo.cn/mmopen/vi_32/TkutvetqnTpaBg7Z3rYt4LoiaJFw9u5vSUEYpickKhs1N1RSxUuqqZoPAziaS0foakJh5ibdxxxQXWlUtdtuAxVfug/132"",""nickName"":""Simplify"",""gender"":1.0}"
"[-0.13529633,-0.076468885,-0.00874554,-0.04732379,-0.022737253,-0.14355251,-0.1185896,-0.16799635,-0.21167424,-0.13246256,-0.06952762,-0.09006221,-0.087392196,-0.07599388,-0.08391294,-0.14437322,-0.13074927,-0.15893382,-0.13985202,-0.16726181,-0.15438387,-0.19398108,-0.149855,-0.18986881,-0.10480954,-0.08163653,-0.050142247,-0.091058195,-0.13386174,-0.22802472,-0.16221195,-0.15589032,-0.13195117,-0.046427403,-0.10378865,-0.12473887,-0.11120492,-0.043968078,0.044617385,0.06544598,-0.11241064,-0.13628083,-0.23395565,-0.0076480373,-0.035991557,0.040813476,-0.0839273,-0.04081731,-0.020339223,-0.015089217,-0.1014768,-0.09730706,-0.09071534,-0.15130876,-0.10581126,-0.20342574,-0.1686083,-0.19110902,-0.17579569,-0.11615517,-0.17969632,-0.2175889,-0.22582397,-0.15109232,-0.10648451,-0.123001635,-0.09033994,-0.14276145,-0.115701236,-0.12516503,-0.1527405,-0.13214652,-0.05912242,-0.110599674,-0.12594746,-0.13017082,-0.106109105,-0.11394676,-0.083092205,-0.09317084,-0.089145705,-0.10922541,-0.13513929,-0.1706022,-0.10735122,-0.14814076,-0.100986466,-0.1701875,-0.15141602,-0.14632212,-0.018142303,-0.07007636,0.055531114,0.009131486,-0.055931427,-0.03128168,-0.017628029,-0.08680321,-0.04378995,-0.0024009054,-0.07305475,-0.07520858,-0.08326363,-0.028874073,-0.01103727,-0.052346826,-0.007025546,-0.14939149,-0.14131919,-0.2228925,-0.20744321,-0.2510627,-0.23947474,-0.33186126,-0.20151517,-0.25528798,-0.23243198,-0.24122827,-0.21169531,-0.20414782,-0.10739814,-0.06826827,-0.21111305,-0.11850341,-0.10409702,-0.09523751,-0.043267056,-0.09529689,-0.036298014,-0.07926053,-0.07050445,-0.033365596,-0.09345048,-0.12492369,-0.1004406,-0.04612669,-0.023593422,-0.07918104,-0.13394122,-0.09459874,-0.11376767,-0.08703019]","[0.0021164743,0.04009234,0.030888075,0.01952328,-0.0030339323,-0.005715438,-0.013618219,0.021371601,0.015993267,-0.0010917559,0.021378305,-0.00410845,-0.029464003,-0.06170528,-0.0678354,-0.063093916,-0.02980015,-0.015165831,-0.0052787354,0.020156305,0.023570437,0.02150855,0.01621545,0.0533907,0.021674229,0.07964455,0.05474677,0.046966575,0.08158194,0.059014194,0.10411618,0.1241202,0.1098115,0.10285778,0.09923009,0.08259709,0.1070122,0.064645365,0.074688554,0.03260424,0.015553692,-0.041682094,0.02600582,-0.02616192,0.028783092,0.03448991,0.012196063,0.008500374,0.006941269,-0.0031613042,0.021089088,0.0028060044,0.014166971,-0.030323043,-0.016191507,0.03356479,0.10297557,0.113392256,0.10502213,0.083096996,0.053911675,0.048300628,0.041816168,0.05149449,0.04480222,0.05260827,0.06314564,0.05724632,0.049381845,0.06807674,0.018000565,0.012254482,0.015329595,0.005019204,0.0015964536,0.031061416,0.03808313,0.06449213,0.058807343,0.056531888,0.058469284,0.046461876,0.04903708,0.056300133,0.031727,0.015961664,-0.001844493,0.013710156,0.035204343,0.0783584,0.07408235,0.050744623,0.07991749,0.062011737,0.0074948086,-0.005018247,-0.029563602,-0.00072400656,-0.031275935,0.0109587405,-0.0036248215,0.03307829,0.012507309,0.046671607,0.047991294,0.04232853,-0.00081402855,-0.0060420074,-0.028284142,0.016984466,-0.022220107,-0.011360966,-0.00576428,0.020420626,0.0058973976,0.014749239,-0.0068071946,-0.0036621708,-0.028825233,0.00474435,0.017424041,0.040855616,0.045674663,-0.01118571,-0.01697489,-0.01693754,-0.016332287,-0.033786975,-0.038184643,-0.06966648,-0.05412811,-0.10165014,-0.08067981,-0.035949416,-0.016099568,0.004895664,0.024163242,0.0075924927,0.00016089035,0.010211749,-0.0028931533,-0.013375926]","[1.0033927,0.87057674,0.84430665,0.91324234,0.79198945,0.8937489,0.8578798,0.769212,0.7294395,0.80983865,0.7838587,0.7787725,0.70381486,0.8831999,0.84810764,0.9098407,0.9627717,0.9980939,0.93915826,0.97701913,1.0192299,0.95406544,0.99825764,0.9346034,0.9937671,0.89342606,0.87753904,0.83059645,0.8787716,0.9614214,0.82478726,0.82531005,0.8316432,0.808725,0.750971,0.7941318,0.75734156,0.800124,0.8547319,1.0046463,0.9935095,1.2757139,0.9750578,1.0133268,1.0490042,1.0396477,1.3365726,1.5079124,1.3572901,1.3192837,1.4299543,1.4412147,1.404433,1.3770558,1.2626101,1.1297644,1.2500874,1.3704296,1.4557905,1.1354847,1.098069,0.87267894,0.83576125,0.723837,0.72217745,0.59618497,0.5528279,0.60374296,0.7702415,0.8847313,0.7601705,0.7487511,0.6901909,0.75960356,1.019838,1.1143926,0.94816417,0.8267504,0.9706562,0.99343187,0.99613255,0.9451426,0.9913087,0.89066696,0.8813478,0.8476796,0.8138897,0.8257133,0.7998233,0.80609417,0.7407737,0.77309066,0.6676241,0.8288841,0.83259994,0.7669241,0.8000761,0.88312995,1.0761716,1.0796642,1.0634067,1.0189521,1.0890697,1.470306,1.4422623,1.4892231,1.4580038,1.3718307,1.5542755,1.458858,1.273204,1.259962,1.2233806,1.395201,1.6154139,1.3104538,1.1355546,0.95175743,0.9150648,0.9655989,0.96013325,0.7226294,0.5243579,0.4967681,0.389573,0.4938826,0.74532074,0.8939155,0.83249843,0.92795527,0.72745425,0.844457,0.9656084,0.8833111,1.0081362,0.9957725,0.95105445,1.0009353,0.96134675,0.94447243,0.84750235,0.8212754]","[-0.05368633,0.1597849,0.06562438,0.42106068,0.011780973,-0.3224845,-0.29300588,-0.10323623,-0.17306685,-0.107617,-0.12833406,0.2451664,0.14477506,0.2165779,0.16304865,0.14224434,-0.00720821,0.1110553,0.2141519,0.03769911,0.14449582,0.025621433,0.13086478,-0.044348817,0.11122983,0.17078047,0.36540213,0.36829937,-0.13395402,-0.062308256,-0.13383184,-0.15329227,-0.23394394,-0.18479545,-0.42900193,-0.34459782,-0.20790362,-0.13763666,0.042062435,0.406365,-0.5764299,-0.20069541,-0.08948303,0.020333085,0.42769292,0.20463985,-0.197484,-0.3554363,0.45026004,0.4290892,0.27825785,0.08798204,-0.2944545,-0.2996556,0.11671016,0.49696505,0.24813347,-0.51443577,-0.35096827,-0.54545027,-0.19928169,0.05461135,0.3760312,-0.16838937,-0.1383348,0.17451547,0.5753303,0.4524068,-0.008726646,-0.42198572,-0.4121595,0.018727383,0.31258845,0.5524665,-0.37320375,-0.35669294,0.13932963,0.10883873,0.029147,-0.019111356,0.10379473,-0.10033898,-0.010960667,0.02232276,0.1104968,0.3199712,0.22495548,0.076934114,-0.22060962,-0.29129544,-0.5142438,-0.11177088,-0.33255503,-0.5619262,-0.44722316,0.07440338,0.3640757,0.022392575,-0.10817551,-0.25434682,0.08110545,0.27865925,-0.17748253,-0.25261897,-0.23286183,0.029461158,0.55548596,0.14166838,-0.25851816,-0.12672836,0.020071287,0.6289119,0.59800214,-0.33068752,-0.4923923,-0.5093918,-0.1128879,0.14016739,0.039514255,-0.34405676,-0.5373345,-0.35918877,-0.27841493,-0.19940387,0.7213446,0.47455502,0.089343406,0.1031315,-0.36409312,0.0953997,0.25441664,-0.0832173,0.11459832,-0.0371057,-0.085817836,0.0675966,-0.04923574,-0.09749409,-0.20755455,-0.07944739,0.20322613]","[0.31916836,0.24102996,0.45945793,0.07035422,0.19605283,0.45867252,0.3740415,0.24214698,0.22549655,-0.150587,-0.11140437,-0.2604555,-0.123272605,-0.11976449,-0.10365511,-0.06250024,0.071174525,-0.024207717,0.060650192,0.019128809,0.020978857,-0.0482409,0.0075223693,0.08545132,-0.011187561,-0.19287634,-0.12465142,-0.38494983,-0.1385966,-0.35705945,-0.50823987,-0.2446079,-0.4105538,-0.34901348,-0.30143583,0.012322024,-0.10403907,0.029914944,0.08848819,-0.4034503,0.021013765,0.058485985,-0.09327039,0.24282765,-0.041922808,0.36004397,0.004049164,0.36992255,0.15022048,0.30168015,0.13831735,0.12924163,0.2024931,0.17271778,0.20169024,0.27183503,-0.03143338,0.32056463,-0.004171337,0.10519099,0.03530801,-0.004782202,-0.21076596,0.30705577,0.61901593,0.20502383,-0.056321774,-0.27401668,-0.27204448,-0.31218705,-0.09588839,-0.06154031,-0.1364673,-0.30888838,0.06106907,0.16039576,-0.17978637,0.006544985,0.07267551,0.07920304,0.19193386,0.20710076,0.16706291,-0.025464354,-0.07714355,-0.1555961,-0.30248302,-0.5422389,-0.37835246,-0.5066167,-0.14126694,-0.7742979,-0.21448351,-0.054524086,-0.24701644,-0.2752908,-0.049323004,0.36233035,0.07087782,0.17146115,0.3362726,0.1336573,0.41479495,0.36266196,0.77096426,0.65737826,0.37460002,-0.030647982,0.28825858,0.16320574,0.13184217,0.14952235,-0.030560715,0.037559487,-0.18181095,-0.20291197,-0.25143212,-0.1762259,-0.20334831,-0.23174481,0.057316612,0.38329175,0.23823744,0.10587167,-0.40716785,-0.54337335,-0.13641493,-0.5282937,-0.069830626,-0.1795071,-0.27787387,0.07532841,-0.12135274,0.036163222,0.18018779,-0.034697145,0.073984504,0.037681658,0.007592182,0.20956168,0.04696681]","[-0.1338144,0.07244862,0.092816606,0.17427112,0.016074482,0.097337015,0.0837758,-0.035116024,-0.045343652,0.11985176,0.20586158,0.21046926,0.22947589,0.20374973,0.04462807,0.06223844,0.018867008,0.0310145,0.0012740904,0.030072022,-0.035168383,-0.025202554,-0.16437511,-0.21539108,-0.19751891,-0.06616543,-0.041067597,0.038938295,-0.09096656,-0.11294025,-0.13065535,-0.10737266,-0.009564404,-0.044662975,-0.06848672,-0.04993387,-0.08299041,0.1399405,0.39365903,0.17896606,0.101054564,-0.22947589,-0.13400638,-0.057019908,0.08909906,0.028291788,-0.08435176,0.027872909,0.26656413,0.2067517,0.1147554,0.16338027,-0.033841934,-0.033684853,-0.1373225,-0.043825217,-0.09829694,-0.05284857,0.07161086,0.13987069,0.06853908,-0.026529005,0.041381758,0.13344787,0.14985397,0.17842501,0.16718508,0.0996234,0.1341111,-0.01298525,-0.07187266,0.061156336,0.073234014,-0.08916887,-0.15006341,-0.12561135,-0.12479104,-0.0043982295,-0.010524335,0.05099852,0.08175122,0.09559168,0.053930674,0.13756685,0.05927138,0.046774823,-0.0916996,-0.18776251,-0.18746582,-0.08414232,-0.20388936,-0.048589967,0.07705629,-0.044069562,-0.008674286,0.019216076,-0.061871924,-0.083932884,-0.045867253,-0.098576196,-0.062220987,-0.24336872,-0.17676695,-0.043039817,0.00837758,0.21134192,0.1701347,0.20080014,0.2210634,0.14137167,0.14378022,0.15091862,-0.027593656,0.08635889,-0.03621558,-0.048014008,-0.04696681,-0.07541568,-0.2107834,-0.16238543,0.0051138145,0.0062482785,-0.011327187,0.10053097,0.073565625,0.230366,0.18760544,0.227748,0.13423327,0.08758062,0.10901327,0.023963371,-0.10028662,-0.16463691,-0.11575024,-0.0017278759,0.028483773,-0.05639159,0.02469641,0.029984757,0.096272364]",1,74,175,"[1.589377067164e+12,1.589377067201e+12,1.589377067223e+12,1.589377067265e+12,1.589377067306e+12,1.589377067346e+12,1.589377067388e+12,1.589377067431e+12,1.589377067473e+12,1.589377067515e+12,1.589377067557e+12,1.589377067601e+12,1.589377067641e+12,1.589377067688e+12,1.589377067729e+12,1.589377067772e+12,1.589377067815e+12,1.589377067857e+12,1.589377067905e+12,1.589377067941e+12,1.589377067982e+12,1.589377068022e+12,1.589377068067e+12,1.58937706811e+12,1.589377068155e+12,1.589377068201e+12,1.589377068241e+12,1.589377068287e+12,1.589377068329e+12,1.589377068369e+12,1.58937706841e+12,1.589377068454e+12,1.589377068497e+12,1.58937706854e+12,1.589377068586e+12,1.589377068626e+12,1.589377068668e+12,1.589377068713e+12,1.589377068758e+12,1.589377068801e+12,1.589377068844e+12,1.589377068885e+12,1.589377068928e+12,1.58937706897e+12,1.589377069017e+12,1.58937706906e+12,1.5893770691e+12,1.589377069143e+12,1.589377069183e+12,1.589377069227e+12,1.589377069267e+12,1.58937706931e+12,1.589377069352e+12,1.589377069394e+12,1.589377069436e+12,1.58937706948e+12,1.589377069522e+12,1.589377069564e+12,1.589377069607e+12,1.58937706965e+12,1.589377069692e+12,1.589377069733e+12,1.589377069775e+12,1.589377069817e+12,1.589377069862e+12,1.589377069904e+12,1.589377069945e+12,1.589377069986e+12,1.589377070029e+12,1.589377070082e+12,1.589377070123e+12,1.589377070164e+12,1.589377070205e+12,1.589377070248e+12,1.589377070282e+12,1.589377070324e+12,1.589377070366e+12,1.589377070408e+12,1.589377070448e+12,1.58937707049e+12,1.589377070532e+12,1.589377070579e+12,1.589377070628e+12,1.58937707067e+12,1.589377070713e+12,1.589377070757e+12,1.589377070801e+12,1.589377070842e+12,1.589377070883e+12,1.589377070925e+12,1.589377070969e+12,1.58937707101e+12,1.589377071053e+12,1.589377071095e+12,1.589377071136e+12,1.589377071179e+12,1.589377071225e+12,1.589377071274e+12,1.589377071314e+12,1.589377071355e+12,1.589377071397e+12,1.589377071439e+12,1.589377071486e+12,1.589377071527e+12,1.589377071569e+12,1.589377071609e+12,1.58937707165e+12,1.589377071692e+12,1.589377071733e+12,1.589377071775e+12,1.589377071819e+12,1.58937707186e+12,1.589377071905e+12,1.589377071946e+12,1.589377071988e+12,1.589377072029e+12,1.589377072071e+12,1.589377072117e+12,1.589377072159e+12,1.589377072203e+12,1.589377072241e+12,1.589377072281e+12,1.589377072322e+12,1.589377072362e+12,1.589377072402e+12,1.589377072444e+12,1.589377072491e+12,1.589377072531e+12,1.589377072573e+12,1.589377072615e+12,1.589377072657e+12,1.5893770727e+12,1.589377072741e+12,1.589377072783e+12,1.589377072826e+12,1.589377072869e+12,1.58937707291e+12,1.589377072951e+12,1.589377072993e+12,1.589377073034e+12,1.589377073077e+12,1.589377073119e+12]","[1.589377067201e+12,1.589377067223e+12,1.589377067265e+12,1.589377067306e+12,1.589377067346e+12,1.589377067388e+12,1.589377067431e+12,1.589377067473e+12,1.589377067515e+12,1.589377067557e+12,1.589377067601e+12,1.589377067641e+12,1.589377067688e+12,1.589377067729e+12,1.589377067772e+12,1.589377067815e+12,1.589377067857e+12,1.589377067905e+12,1.589377067941e+12,1.589377067982e+12,1.589377068022e+12,1.589377068067e+12,1.58937706811e+12,1.589377068155e+12,1.589377068201e+12,1.589377068241e+12,1.589377068287e+12,1.589377068329e+12,1.589377068369e+12,1.58937706841e+12,1.589377068454e+12,1.589377068497e+12,1.58937706854e+12,1.589377068586e+12,1.589377068626e+12,1.589377068668e+12,1.589377068713e+12,1.589377068758e+12,1.589377068801e+12,1.589377068844e+12,1.589377068885e+12,1.589377068928e+12,1.58937706897e+12,1.589377069017e+12,1.58937706906e+12,1.5893770691e+12,1.589377069143e+12,1.589377069183e+12,1.589377069227e+12,1.589377069267e+12,1.58937706931e+12,1.589377069352e+12,1.589377069394e+12,1.589377069436e+12,1.58937706948e+12,1.589377069522e+12,1.589377069564e+12,1.589377069607e+12,1.58937706965e+12,1.589377069692e+12,1.589377069733e+12,1.589377069775e+12,1.589377069817e+12,1.589377069862e+12,1.589377069904e+12,1.589377069945e+12,1.589377069986e+12,1.589377070029e+12,1.589377070082e+12,1.589377070123e+12,1.589377070164e+12,1.589377070205e+12,1.589377070248e+12,1.589377070282e+12,1.589377070324e+12,1.589377070366e+12,1.589377070408e+12,1.589377070448e+12,1.58937707049e+12,1.589377070532e+12,1.589377070579e+12,1.589377070628e+12,1.58937707067e+12,1.589377070713e+12,1.589377070757e+12,1.589377070801e+12,1.589377070842e+12,1.589377070883e+12,1.589377070925e+12,1.589377070969e+12,1.58937707101e+12,1.589377071053e+12,1.589377071095e+12,1.589377071136e+12,1.589377071179e+12,1.589377071225e+12,1.589377071274e+12,1.589377071314e+12,1.589377071355e+12,1.589377071397e+12,1.589377071439e+12,1.589377071486e+12,1.589377071527e+12,1.589377071569e+12,1.589377071609e+12,1.58937707165e+12,1.589377071692e+12,1.589377071733e+12,1.589377071775e+12,1.589377071819e+12,1.58937707186e+12,1.589377071905e+12,1.589377071946e+12,1.589377071988e+12,1.589377072029e+12,1.589377072071e+12,1.589377072117e+12,1.589377072159e+12,1.589377072203e+12,1.589377072241e+12,1.589377072281e+12,1.589377072322e+12,1.589377072362e+12,1.589377072402e+12,1.589377072444e+12,1.589377072491e+12,1.589377072531e+12,1.589377072573e+12,1.589377072615e+12,1.589377072657e+12,1.5893770727e+12,1.589377072741e+12,1.589377072783e+12,1.589377072826e+12,1.589377072869e+12,1.58937707291e+12,1.589377072951e+12,1.589377072993e+12,1.589377073034e+12,1.589377073077e+12,1.589377073119e+12]","{""country"":""China"",""avatarUrl"":""https://wx.qlogo.cn/mmopen/vi_32/TkutvetqnTpaBg7Z3rYt4LoiaJFw9u5vSUEYpickKhs1N1RSxUuqqZoPAziaS0foakJh5ibdxxxQXWlUtdtuAxVfug/132"",""nickName"":""Simplify"",""gender"":1.0,""language"":""zh_CN"",""city"":""Wuxi"",""province"":""Jiangsu""}"
"[-0.07083772,-0.060554154,-0.044307094,-0.03020908,-0.03224032,-0.051865112,-0.037478834,-0.0021068975,-0.023892218,-0.0024344241,0.009218634,-0.03613808,0.0019594147,0.02650573,0.013716862,0.024053108,0.014895765,-0.022121467,0.03240121,0.00094044243,0.07418003,-0.01486895,0.040417958,0.013849978,0.035417907,0.060945846,0.02686103,-0.01608712,0.1100873,0.045801077,0.07892151,0.034939066,0.023571394,-0.030731972,0.009408255,0.035228282,0.017545667,0.008633492,0.01735892,-0.05472762,-0.010840946,-0.06291196,-0.11157364,-0.09145084,-0.006922116,-0.004975151,-0.19910182,-0.19704472,-0.20416987,-0.14014412,-0.11658804,-0.1959022,-0.19054876,-0.18038107,-0.17596522,-0.09854055,-0.12427726,-0.0647622,-0.16046993,-0.11679202,-0.11576252,-0.12033641,-0.0819066,-0.08952878,-0.08763449,-0.0938077,-0.075488225,-0.11655261,-0.07566348,-0.07469527,-0.048998773,-0.06131742,-0.050411355,-9.2895025e-05,-0.028972715,-0.017967047,-0.03778242,-0.046724282,-0.05919999,0.039975505,0.027956614,0.029178616,-0.005077623,0.027993962,0.0022036233,-0.0039791632,0.06579841,0.08856057,0.06764386,0.04939238,0.065010235,0.07761045,0.08153597,0.027073633,0.043155007,0.0674121,0.11904927,0.1307033,0.113341495,0.08337663,0.059284262,0.0655044,0.10472047,0.116436735,0.05739093,0.028290844,-0.0053706737,-0.010995132,0.004152504,-0.09229648,-0.09591076,-0.041082587,-0.10656879,-0.061829783,-0.12810512,-0.0906416,-0.10129197,-0.05267148,-0.06689303,-0.09566273,-0.110207975,-0.1993192,-0.060974576,-0.17491272,-0.05303827,-0.063376434,-0.05467686,-0.07133667,-0.07628501,-0.06253367,-0.060635556,-0.070741,-0.06580703,-0.12047049,-0.11492934,-0.0921873,-0.10664253,-0.11862503,-0.10654485,-0.0839771,-0.089221366,-0.053905934,0.00088298164]","[0.03917297,0.040773254,0.047503836,0.048804365,0.06763141,0.074236535,0.061894905,0.059351303,0.06295793,0.04812441,0.06714012,0.048240293,0.05957827,0.04424485,0.042456858,0.01123551,0.04390391,0.042612,0.06555708,0.06153194,0.046256933,0.050973512,0.035823006,0.03283695,0.030870836,0.02811176,0.040201522,0.051703267,0.06270988,0.0626419,0.03577991,0.03962595,0.013972561,0.012487198,0.01790384,0.032216378,0.05838596,0.05495459,0.06414258,0.06763907,0.08787008,0.07932086,0.07854227,0.094966486,0.12292119,0.048087064,-0.045921747,-0.11373224,-0.03908199,0.027823497,0.062033765,0.056051135,0.037837006,0.05431677,0.06936577,0.08303475,0.055782985,0.07875104,0.021255722,0.0076585724,0.014866076,0.021851402,0.04993922,0.051012777,0.0649499,0.0472376,0.03778242,0.048082273,0.042762358,0.04175488,0.027814876,0.052654244,0.002672887,0.020320069,-0.007434475,0.010985555,0.032228827,0.058595695,0.020090226,0.04472177,0.037192486,0.022743,0.021588039,0.012186487,-0.019521361,0.01912584,0.018772457,0.013298353,-0.006571605,-0.007858728,-0.03169157,-0.029126901,-0.010406158,-0.04379761,-0.018301276,0.005998912,0.015625518,-0.004856399,0.02367674,0.016887741,0.028589642,0.019870916,0.020609288,0.019800048,-0.0008705317,0.0045997403,-0.025183171,0.019144995,-0.015668614,-0.01023186,-0.0063475072,0.020343054,0.037720166,0.046953168,0.043971907,0.01369196,0.018410454,0.025131455,0.052635092,0.025314372,0.037773795,0.0010553641,0.027818706,0.010518206,0.009826762,0.01006714,0.033409648,0.03893259,0.0537843,0.055484187,0.06767259,0.036647566,0.04135361,0.039521568,0.039688203,0.028122295,0.048326485,0.040368155,0.053977758,0.06424697,0.06824816,0.07482551,0.058962483]","[0.969872,0.97648764,0.9509262,0.9537379,0.9568609,0.94803303,0.9067971,0.9234973,0.8766618,0.9602817,0.9184904,0.946043,0.8971323,0.907323,0.93241805,0.9946281,0.9206519,0.89905435,0.9153253,0.9395882,0.97284174,1.0168989,1.0723381,0.993724,1.0022109,0.9702684,1.0499771,1.1013329,1.1916564,1.1576703,1.2079735,1.1824358,1.303118,1.0828065,1.0692668,1.1212449,1.1287138,1.1316222,1.0806756,1.1315973,1.0593894,1.0795944,1.3135222,1.2413955,1.1769435,0.92578804,0.82898366,0.97182477,1.0307488,0.8737361,0.9663496,0.8836864,1.0129733,0.8883427,0.89028007,0.6588057,0.82281053,0.7604751,0.9718879,0.80157393,0.7763113,0.9325808,0.99433774,1.0170454,0.95131207,1.0024743,0.94237596,0.96661204,0.9121784,0.91909,0.8838828,0.8857071,0.95247763,0.8251664,0.9854496,0.90816194,0.99746084,0.86298907,0.97564,0.8347413,0.94414103,0.8906153,0.95519745,0.9204882,0.966365,0.9084357,1.0909237,0.91412914,0.9271814,0.87658423,0.9448765,1.0312822,1.031174,1.0325646,0.98235923,1.1376894,1.2251713,1.2517682,1.1412843,1.1245143,1.1147718,1.2572519,1.1620709,1.157043,1.1379937,1.1858385,1.2028508,1.150887,1.2025998,1.1634029,1.1995995,1.1273625,1.1846452,0.98720217,0.79994017,0.93712693,0.99173486,1.0736358,0.81172055,0.85821307,0.6366527,0.828571,0.84980756,0.86476076,0.76186275,0.7576011,0.7670486,0.89780456,1.019951,1.0299636,0.8806717,0.9707492,1.0232445,0.97274685,0.9637802,1.0007993,0.9615679,0.954507,0.94096917,1.0016516,0.94543964,0.8448247,0.9489638]","[-0.08915142,-0.10979866,-0.042202063,0.012566371,-0.0068242373,-0.07661995,-0.018954275,-0.0027401668,0.15074408,0.057770398,0.033004176,-0.14859733,-0.14554301,-0.03693117,0.03005457,-0.2001369,-0.11470304,-0.013124876,0.097755894,0.17414895,0.2284985,0.1340762,-0.23047073,-0.22607249,-0.22923154,0.06356489,0.17411405,0.14358823,-0.07911578,-0.005358161,0.038030725,0.21036454,-0.3148923,-0.085573494,0.1834341,0.14910348,0.0744732,-0.008255407,0.115854956,-0.2527586,-0.101368725,0.30101693,-0.19936895,-0.5657834,-0.8571661,-0.5719444,0.19975293,0.44465753,0.626451,0.6857224,0.31461304,0.42931607,-0.10293952,-0.15922639,-0.48111746,0.056583576,-0.08695231,0.1751438,-0.5197765,-0.30079004,0.15329227,0.13952161,0.0077318083,-0.12013101,0.12412781,-0.08600982,-0.0048520155,-0.07304203,0.00031415926,-0.045256387,0.037943456,0.06190683,-0.183661,0.23856905,0.00083775807,0.20001473,-0.24205971,0.03436553,-0.24897122,0.11016518,-0.09960594,-0.044087015,-0.12918927,0.014032447,-0.15056956,0.08201302,-0.4428424,-0.29768336,-0.25658086,0.07590437,0.1873262,0.050806534,-0.06091199,-0.10807078,0.14784685,0.40955895,0.18777998,-0.15252432,-0.09234537,0.043441243,0.25118777,-0.113725655,-0.059166662,-0.03785619,0.11213741,0.015673056,-0.004118977,0.13573426,-0.024574235,0.09686577,-0.007278023,0.23364723,-0.092903875,-0.28422686,0.40477675,0.34630823,0.19231783,-0.5651027,-0.26181683,-0.48415434,0.58934534,0.3841819,0.03403392,-0.25651103,-0.23061036,-0.11325441,0.2708751,0.36711255,0.045291293,-0.26476645,0.11508701,0.16275196,-0.021101031,-0.021973696,0.014032447,-0.04405211,-0.05906194,-0.026371924,0.09258971,-0.12206833,-0.15601498,0.2205049,0.04632104]","[-0.17050122,-0.1081406,-0.10206685,-0.13456489,-0.18247417,-0.14507176,-0.15847589,-0.11486012,-0.17713347,-0.14919074,-0.17900097,-0.12957324,-0.1290671,-0.08782497,-0.18345156,-0.06810275,-0.12800245,-0.034225907,-0.10477211,-0.018989183,-0.020402899,-0.11136946,-0.012007865,0.024469515,0.030333823,0.13775884,0.06250024,0.10899581,0.0062308256,0.0980526,0.22410028,-0.16180947,0.09944886,0.049288098,-0.009005899,0.15655604,0.12774065,0.28239426,0.15934856,0.32559118,0.417954,0.3255737,0.46005133,0.33629003,0.32431707,0.4996005,0.18926351,0.23650956,0.07984881,0.072483525,0.23300146,0.21720622,0.12044517,-0.032044247,-0.0039095376,-0.0596379,0.08972738,-0.33674383,-0.053651422,-0.104492866,-0.28667033,-0.07843509,-0.14316936,-0.09040806,-0.2669481,-0.18200293,-0.17051867,-0.12623966,-0.19027579,-0.12592551,-0.12501794,-0.34566244,0.031520646,-0.29873055,-0.10920525,-0.22755602,-0.14035937,-0.4092448,-0.17263052,-0.38207003,-0.21324433,-0.24528857,-0.15845844,-0.32899457,-0.21331415,-0.38758525,-0.20696114,-0.22284363,-0.077754416,-0.06637487,-0.11393509,0.05232497,-0.05935865,0.14873695,0.11264355,-0.024818582,0.012444197,0.081210166,-0.053616516,0.2030167,-0.06794567,0.14844026,0.044244096,0.26274186,0.20874138,0.39625955,0.47069785,0.61159825,0.54190725,0.4108505,0.37920767,0.26199138,0.25164157,0.3444582,0.14672983,0.2629164,0.25090852,0.334248,0.17208946,0.2489014,-0.32873276,-0.12234758,-0.25232226,-0.075607665,-0.3511079,-0.1576556,-0.10859439,-0.11461577,-0.119555056,0.10049606,0.035796702,-0.0015882496,0.021310471,-0.004415683,-0.054419365,-0.039985493,-0.048851766,-0.030072022,-0.0749968,-0.19723965,-0.09407324,-0.33684856,-0.43083453]","[-0.057560958,-0.03728023,-0.04935791,-0.046896998,-0.026249751,-0.0042586033,-0.031922072,0.006562438,-0.0198793,-0.017907077,0.04675737,-0.06070255,-0.05326745,-0.043249257,-0.04379031,-0.057752945,-0.02539454,-0.07340855,0.032882,0.020001473,0.12290609,0.07599164,0.10841985,0.03488913,0.069272116,0.056531213,0.056426495,-0.077091195,0.04886922,0.03239331,0.12953834,0.034470253,0.06469935,-0.0890467,-0.13416345,-0.13021901,-0.120881505,-0.12791517,-0.102031946,-0.14870206,-0.019530235,0.025883233,0.01574287,-0.0077667153,0.22987731,0.49467868,0.28984684,0.16198401,-0.073426,-0.06679375,0.1081057,0.044680428,-0.0009424778,-0.035552356,-0.049410272,0.0084823,0.029757863,0.07806858,-0.012199852,-0.07278023,-0.11704178,-0.11667526,-0.058503438,-0.021135937,0.036337756,0.03330088,0.092886426,-0.011519173,0.026145032,-0.009197885,-0.023492131,-0.0008726646,-0.034330625,-0.037123155,-0.045989424,-0.058677968,-0.042655848,-0.023684118,-0.14432128,-0.107041046,-0.06544985,-0.03799582,-0.05438446,-0.085573494,-0.08267625,-0.15426965,-0.07002261,-0.014346606,-0.026459191,-0.04979424,-0.023317598,0.00085521134,0.06263987,-0.031189034,-0.1258906,-0.15704472,-0.0027052604,-0.035116024,0.023020893,0.08461356,0.016528267,0.06517059,0.09187413,0.16479398,0.12109094,0.10636036,0.02932153,-0.008779006,0.05094616,-0.01685988,-0.106150925,-0.08279842,-0.1725258,0.02932153,-0.07126179,-0.04152138,-0.08002335,0.041259583,0.021450097,0.04701917,0.057752945,-0.06853908,0.106150925,-0.029880038,-0.0259705,-0.07648033,-0.044436082,-0.033265974,-0.06736971,-0.00027925268,0.011658799,-0.009389872,0.036337756,-0.021816615,-0.042062435,-0.03556981,-0.017139133,-0.058485985,-0.07098254,-0.009634217,-0.03244567,-0.07543313,-0.005550147]",1,74,175,"[1.589376917801e+12,1.589376917844e+12,1.589376917885e+12,1.589376917925e+12,1.589376917968e+12,1.589376918009e+12,1.58937691805e+12,1.589376918091e+12,1.589376918135e+12,1.589376918178e+12,1.589376918218e+12,1.589376918261e+12,1.589376918305e+12,1.58937691835e+12,1.58937691839e+12,1.589376918432e+12,1.589376918474e+12,1.589376918515e+12,1.589376918556e+12,1.589376918598e+12,1.589376918639e+12,1.589376918683e+12,1.589376918725e+12,1.589376918774e+12,1.589376918812e+12,1.589376918854e+12,1.589376918896e+12,1.589376918937e+12,1.58937691898e+12,1.589376919022e+12,1.589376919064e+12,1.589376919106e+12,1.589376919154e+12,1.589376919193e+12,1.589376919233e+12,1.589376919277e+12,1.589376919316e+12,1.589376919358e+12,1.589376919399e+12,1.589376919443e+12,1.589376919486e+12,1.589376919538e+12,1.589376919569e+12,1.58937691961e+12,1.589376919651e+12,1.589376919694e+12,1.589376919738e+12,1.589376919779e+12,1.589376919821e+12,1.589376919865e+12,1.589376919908e+12,1.589376919951e+12,1.589376919993e+12,1.589376920037e+12,1.58937692008e+12,1.589376920122e+12,1.589376920164e+12,1.589376920208e+12,1.58937692025e+12,1.589376920291e+12,1.589376920332e+12,1.589376920374e+12,1.589376920416e+12,1.589376920459e+12,1.589376920501e+12,1.589376920542e+12,1.589376920583e+12,1.589376920625e+12,1.589376920665e+12,1.589376920707e+12,1.589376920749e+12,1.589376920794e+12,1.589376920836e+12,1.589376920878e+12,1.589376920921e+12,1.589376920961e+12,1.589376921003e+12,1.589376921045e+12,1.589376921088e+12,1.589376921134e+12,1.589376921175e+12,1.589376921219e+12,1.58937692126e+12,1.589376921303e+12,1.589376921343e+12,1.589376921384e+12,1.589376921425e+12,1.589376921469e+12,1.58937692151e+12,1.589376921551e+12,1.589376921594e+12,1.589376921635e+12,1.589376921676e+12,1.58937692172e+12,1.589376921762e+12,1.589376921804e+12,1.589376921847e+12,1.58937692189e+12,1.589376921933e+12,1.589376921975e+12,1.589376922017e+12,1.589376922062e+12,1.589376922101e+12,1.589376922143e+12,1.589376922185e+12,1.589376922226e+12,1.589376922269e+12,1.589376922311e+12,1.589376922355e+12,1.589376922397e+12,1.589376922437e+12,1.589376922478e+12,1.589376922521e+12,1.589376922564e+12,1.589376922606e+12,1.589376922648e+12,1.589376922689e+12,1.589376922732e+12,1.589376922775e+12,1.58937692282e+12,1.589376922864e+12,1.589376922905e+12,1.589376922947e+12,1.589376922989e+12,1.589376923034e+12,1.589376923077e+12,1.589376923118e+12,1.589376923159e+12,1.589376923202e+12,1.589376923246e+12,1.589376923289e+12,1.58937692333e+12,1.589376923372e+12,1.589376923413e+12,1.589376923455e+12,1.589376923496e+12,1.589376923537e+12,1.589376923578e+12,1.589376923621e+12,1.589376923663e+12,1.589376923705e+12,1.589376923748e+12,1.58937692379e+12]","[1.589376917801e+12,1.589376917844e+12,1.589376917885e+12,1.589376917925e+12,1.589376917968e+12,1.589376918009e+12,1.58937691805e+12,1.589376918091e+12,1.589376918135e+12,1.589376918178e+12,1.589376918218e+12,1.589376918261e+12,1.589376918305e+12,1.58937691835e+12,1.58937691839e+12,1.589376918432e+12,1.589376918474e+12,1.589376918515e+12,1.589376918556e+12,1.589376918598e+12,1.589376918639e+12,1.589376918683e+12,1.589376918725e+12,1.589376918774e+12,1.589376918812e+12,1.589376918854e+12,1.589376918896e+12,1.589376918937e+12,1.58937691898e+12,1.589376919022e+12,1.589376919064e+12,1.589376919106e+12,1.589376919154e+12,1.589376919193e+12,1.589376919233e+12,1.589376919277e+12,1.589376919316e+12,1.589376919358e+12,1.589376919399e+12,1.589376919443e+12,1.589376919486e+12,1.589376919538e+12,1.589376919569e+12,1.58937691961e+12,1.589376919651e+12,1.589376919694e+12,1.589376919738e+12,1.589376919779e+12,1.589376919821e+12,1.589376919865e+12,1.589376919908e+12,1.589376919951e+12,1.589376919993e+12,1.589376920037e+12,1.58937692008e+12,1.589376920122e+12,1.589376920164e+12,1.589376920208e+12,1.58937692025e+12,1.589376920291e+12,1.589376920332e+12,1.589376920374e+12,1.589376920416e+12,1.589376920459e+12,1.589376920501e+12,1.589376920542e+12,1.589376920583e+12,1.589376920625e+12,1.589376920665e+12,1.589376920707e+12,1.589376920749e+12,1.589376920794e+12,1.589376920836e+12,1.589376920878e+12,1.589376920921e+12,1.589376920961e+12,1.589376921003e+12,1.589376921045e+12,1.589376921088e+12,1.589376921134e+12,1.589376921175e+12,1.589376921219e+12,1.58937692126e+12,1.589376921303e+12,1.589376921343e+12,1.589376921384e+12,1.589376921425e+12,1.589376921469e+12,1.58937692151e+12,1.589376921551e+12,1.589376921594e+12,1.589376921635e+12,1.589376921676e+12,1.58937692172e+12,1.589376921762e+12,1.589376921804e+12,1.589376921847e+12,1.58937692189e+12,1.589376921933e+12,1.589376921975e+12,1.589376922017e+12,1.589376922062e+12,1.589376922101e+12,1.589376922143e+12,1.589376922185e+12,1.589376922226e+12,1.589376922269e+12,1.589376922311e+12,1.589376922355e+12,1.589376922397e+12,1.589376922437e+12,1.589376922478e+12,1.589376922521e+12,1.589376922564e+12,1.589376922606e+12,1.589376922648e+12,1.589376922689e+12,1.589376922732e+12,1.589376922775e+12,1.58937692282e+12,1.589376922864e+12,1.589376922905e+12,1.589376922947e+12,1.589376922989e+12,1.589376923034e+12,1.589376923077e+12,1.589376923118e+12,1.589376923159e+12,1.589376923202e+12,1.589376923246e+12,1.589376923289e+12,1.58937692333e+12,1.589376923372e+12,1.589376923413e+12,1.589376923455e+12,1.589376923496e+12,1.589376923537e+12,1.589376923578e+12,1.589376923621e+12,1.589376923663e+12,1.589376923705e+12,1.589376923748e+12,1.58937692379e+12]","{""gender"":1.0,""language"":""zh_CN"",""city"":""Wuxi"",""province"":""Jiangsu"",""country"":""China"",""avatarUrl"":""https://wx.qlogo.cn/mmopen/vi_32/TkutvetqnTpaBg7Z3rYt4LoiaJFw9u5vSUEYpickKhs1N1RSxUuqqZoPAziaS0foakJh5ibdxxxQXWlUtdtuAxVfug/132"",""nickName"":""Simplify""}"
