acc_x,acc_y,acc_z,gry_x,gry_y,gry_z,gender,weight,height,times,timeSs_g,userInfo
"[-0.0678253173828125,-0.0759429931640625,-0.0598602294921875,-0.0213470458984375,-0.0059967041015625,-0.0214385986328125,-0.0270233154296875,-0.014190673828125,0.0047149658203125,-0.0086517333984375,-0.0310211181640625,0.017364501953125,0.055816650390625,0.043182373046875,0.0046234130859375,-0.0066680908203125,-0.0388946533203125,-0.0623321533203125,-0.069854736328125,-0.0316162109375,0.010986328125,0.0292816162109375,0.058624267578125,0.051116943359375,0.0580291748046875,0.0433197021484375,0.0401611328125,0.0147857666015625,0.0131988525390625,0.029571533203125,0.0233612060546875,0.021881103515625,0.006500244140625,-0.0113067626953125,-0.0427703857421875,-0.0611572265625,-0.0329742431640625,-0.0172119140625,-0.030181884765625,-0.0332183837890625,0.00067138671875,-0.0043487548828125,-0.015380859375,-0.0146942138671875,0.0503387451171875,0.0756683349609375,0.0804901123046875,0.0512237548828125,0.0380706787109375,0.0797882080078125,0.07659912109375,0.0511016845703125,0.074432373046875,0.098846435546875,0.1026611328125,0.089874267578125,0.0774993896484375,0.057403564453125,0.0386505126953125,0.031463623046875,0.04736328125,0.017120361328125,0.0136566162109375,0.0179443359375,0.011993408203125,-0.0033416748046875,0.02484130859375,-0.013946533203125,-0.0430908203125,-0.0458831787109375,-0.0394134521484375,0.01324462890625,0.0380401611328125,0.0261993408203125,0.0289459228515625,0.014007568359375,-0.0111083984375,-0.0029296875,-0.0227813720703125,-0.0522003173828125,-0.0428314208984375,-0.018707275390625,-0.003814697265625,-0.0067596435546875,-0.0158538818359375,-0.02032470703125,-0.0783843994140625,-0.1051788330078125,-0.1054840087890625,-0.1195068359375,-0.1100311279296875,-0.100616455078125,-0.0939788818359375,-0.079132080078125,-0.066436767578125,-0.0937042236328125,-0.05584716796875,-0.0472869873046875,-0.026519775390625,-0.036865234375,-0.0421295166015625,-0.04376220703125,-0.04583740234375,-0.045074462890625,-0.068328857421875,-0.0866241455078125,-0.0918426513671875,-0.0753173828125,-0.0560455322265625,-0.03302001953125,-0.0521697998046875,-0.053619384765625,-0.0255279541015625,-0.043914794921875,-0.0503082275390625,-0.0546417236328125,-0.05303955078125,-0.061126708984375,-0.067474365234375,-0.0569610595703125,-0.0393524169921875,-0.0377044677734375,-0.028656005859375,-0.0157623291015625,-0.001556396484375,0.0060272216796875,0.0159759521484375,0.0332794189453125,0.0418701171875,0.0260009765625,0.00042724609375,-0.007904052734375,0.0193634033203125,0.01397705078125,-0.0086822509765625,0.002655029296875,0.014251708984375,0.0272979736328125,0.0348052978515625,0.0424041748046875,0.0160369873046875,-0.014923095703125,-0.014129638671875,-0.0064239501953125,-0.0199432373046875,-0.0258026123046875,-0.0212860107421875,-0.020111083984375,0.0033111572265625,0.01129150390625,0.019744873046875,0.033660888671875,0.062225341796875,0.0648345947265625,0.0620574951171875,0.0148468017578125,0.0313873291015625,0.074981689453125,0.0735321044921875,0.030975341796875,0.010040283203125,0.0306854248046875,0.0797882080078125,0.0732574462890625,0.050384521484375,0.068634033203125,0.04559326171875,0.0024871826171875,0.0236358642578125,0.0508575439453125,0.0399017333984375,0.01519775390625,0.004486083984375,-0.00537109375,-0.0262298583984375,-0.0386962890625,-0.0194549560546875,0.013427734375,-0.02154541015625,-0.0283660888671875,-0.030181884765625,-0.02276611328125,0.006378173828125,0.0058746337890625,0.0316314697265625,0.0615234375,0.036712646484375,-0.0220489501953125,0.0132598876953125,0.05999755859375,0.013092041015625,-0.0558319091796875,-0.11871337890625,-0.0812225341796875,-0.0462493896484375,-0.0575714111328125,-0.03955078125,-0.0043792724609375,-0.0282440185546875,0.0150146484375,-0.0111846923828125,-0.124755859375,-0.131103515625,-0.097015380859375,-0.1008453369140625,-0.0880126953125,-0.1109466552734375,-0.12518310546875,-0.1629180908203125,-0.182342529296875,-0.1629638671875,-0.1606597900390625,-0.128997802734375,-0.1266326904296875,-0.127899169921875,-0.080810546875,-0.047393798828125,-0.0611114501953125,-0.0641326904296875,-0.0444488525390625,-0.01666259765625,-0.004913330078125,0.004608154296875,-0.0022125244140625,-0.029144287109375,-0.0819244384765625,-0.0911407470703125,-0.091796875,-0.0778350830078125,-0.0753173828125,-0.1219329833984375,-0.1088714599609375,-0.059539794921875,-0.04876708984375,-0.072265625,-0.0793914794921875,-0.0274658203125,-0.0055694580078125,0.0118865966796875,0.0457763671875,0.0798797607421875,0.083953857421875,0.0769805908203125,0.0772552490234375,0.0632781982421875,0.0567626953125,0.0357208251953125,0.0259246826171875,0.0334930419921875,0.034576416015625,0.0498809814453125,0.0570831298828125,0.045928955078125,0.0410919189453125,0.037994384765625,0.02398681640625,0.0182037353515625,0.0090484619140625,0.0213623046875,0.0513458251953125,0.066619873046875,0.02679443359375,-0.0115203857421875,-0.001861572265625,-0.00262451171875,-0.005584716796875,-0.0023651123046875,-0.0224609375,-0.04400634765625,-0.0606689453125,-0.0142974853515625,0.0294342041015625,0.0245361328125,-0.0078582763671875,-0.0030059814453125,0.0187225341796875,0.0092010498046875,0.0406036376953125,0.055908203125,-0.0181732177734375,0.0109405517578125,0.047821044921875,0.0680084228515625,0.0221710205078125,-0.0142974853515625,-0.04632568359375,-0.0280303955078125,-0.018524169921875,-0.042724609375,-0.028717041015625,-0.0607757568359375,-0.0875701904296875,-0.0696563720703125,-0.0820465087890625,-0.042510986328125,0.0023193359375,-0.028778076171875,-0.0577545166015625,-0.0075225830078125,-0.0218963623046875,-0.0645751953125,-0.069091796875,-0.0470123291015625,-0.013580322265625,-0.0487823486328125,-0.0648193359375,-0.0596160888671875,-0.042266845703125,-0.0481109619140625,-0.0280914306640625,-0.031036376953125,-0.03955078125,-0.0568084716796875,-0.0760040283203125,-0.0764617919921875,-0.0614166259765625,-0.07147216796875,-0.0517578125,-0.05474853515625,-0.1005859375,-0.1314239501953125,-0.1410369873046875,-0.13861083984375,-0.1082611083984375,-0.0723876953125,-0.014434814453125,0.035400390625,0.035675048828125,0.0423736572265625,0.01007080078125,-0.0102386474609375,-0.0047760009765625,-0.0229644775390625,-0.0311279296875,-0.0247650146484375,-0.0090484619140625,-0.01422119140625,-0.0144500732421875,-0.0188751220703125,-0.0526275634765625,-0.07073974609375,-0.0408782958984375,-0.0291290283203125,-0.003997802734375,-0.008758544921875,0.0202178955078125,0.0469818115234375,0.073883056640625,0.06768798828125,0.080810546875,0.0705108642578125,0.072174072265625,0.109130859375,0.1256256103515625,0.1088104248046875,0.084014892578125,0.0665130615234375,0.0726776123046875,0.05780029296875,0.0229339599609375,0.04595947265625,0.0752716064453125,0.089935302734375,0.1159820556640625,0.1213836669921875,0.114532470703125,0.09014892578125,0.06951904296875,0.036163330078125,0.0238494873046875,-0.0074005126953125,-0.0204010009765625,-0.0062255859375,0.0314178466796875,0.0233306884765625,-0.001129150390625,-0.004913330078125,-0.001953125,0.0302734375,0.0439605712890625,0.0378875732421875,0.0874786376953125,0.118682861328125,0.085235595703125,0.0483856201171875,0.0557708740234375,0.03668212890625,0.015228271484375,0.0367431640625,0.030670166015625,0.0328826904296875,0.0593719482421875,0.0477752685546875,0.04022216796875,0.013427734375,-0.0034637451171875,-0.0140533447265625,-0.0097503662109375,-0.015472412109375,-0.018890380859375,-0.0213623046875,0.0267486572265625,0.0569610595703125,0.0281524658203125,0.003875732421875,0.006072998046875,0.0307464599609375,0.0157470703125,0.060211181640625,0.1214141845703125,0.0810089111328125,0.0584259033203125,0.09124755859375,0.082275390625,0.0186767578125,0.022186279296875,0.0209808349609375,0.0195770263671875,0.003021240234375,0.0265350341796875,0.0266876220703125,0.032806396484375,0.064117431640625,0.0510711669921875,0.0209503173828125,-0.008819580078125,-0.06201171875,-0.101593017578125,-0.1187286376953125,-0.112213134765625,-0.100067138671875,-0.102508544921875,-0.103759765625,-0.0787353515625,-0.04193115234375,-0.0039520263671875,-0.0037841796875,0.0003509521484375,0.036834716796875,0.0164947509765625,-0.0046539306640625,-0.022796630859375,-0.0256805419921875,-0.013092041015625,-0.0145721435546875,-0.023193359375,-0.0643310546875,-0.08221435546875,0.0341339111328125,0.0441436767578125,-0.0077362060546875,-0.0355987548828125,-0.0499725341796875,-0.045440673828125,-0.071258544921875,-0.0596466064453125,-0.0728759765625,-0.14654541015625,-0.0648040771484375,0.2102813720703125,0.1558685302734375,-0.0821990966796875,-0.161041259765625,-0.0248565673828125,0.033966064453125,-0.031280517578125,-0.049713134765625,-0.0445404052734375,-0.0141754150390625,0.0204010009765625,0.03759765625,0.05078125,0.059722900390625,0.071990966796875,0.082611083984375]","[0.010284423828125,0.009033203125,0.0215301513671875,0.0037384033203125,-0.0023193359375,0.010345458984375,0.04327392578125,0.0118255615234375,-0.0252227783203125,-0.081756591796875,-0.0847930908203125,-0.087677001953125,-0.089752197265625,-0.0938873291015625,-0.0876007080078125,-0.0772857666015625,-0.0653839111328125,-0.0633544921875,-0.053070068359375,-0.0518035888671875,-0.064544677734375,-0.055694580078125,-0.067474365234375,-0.039581298828125,-0.0403289794921875,-0.03851318359375,-0.0435333251953125,-0.0470123291015625,-0.0341949462890625,-0.0408782958984375,-0.0505828857421875,-0.0439910888671875,-0.0269775390625,-0.0314788818359375,-0.0161590576171875,-0.0095062255859375,-0.0384674072265625,-0.0430755615234375,-0.0043182373046875,0.019287109375,0.0062408447265625,-0.0090789794921875,0.001983642578125,0.027008056640625,-0.016876220703125,-0.0337982177734375,-0.0389862060546875,-0.003021240234375,-0.00164794921875,-0.022613525390625,-0.0403289794921875,-0.0153350830078125,-0.02288818359375,-0.0337066650390625,-0.0429534912109375,-0.030364990234375,-0.01043701171875,0.0020294189453125,-0.0320587158203125,-0.0363922119140625,-0.049072265625,-0.012298583984375,-0.0119171142578125,-0.0352630615234375,-0.0289764404296875,0.033111572265625,0.0128936767578125,0.0320281982421875,0.045562744140625,0.0173187255859375,0.0150909423828125,0.04052734375,0.0393218994140625,0.01568603515625,0.0345916748046875,0.0567626953125,0.037811279296875,0.009307861328125,0.005859375,-0.003143310546875,-0.0049591064453125,0.019287109375,0.0091094970703125,-0.0034942626953125,0.0203704833984375,0.0156707763671875,0.0212860107421875,-0.0208587646484375,-0.0355682373046875,-0.0264129638671875,-0.03143310546875,-0.014251708984375,-0.0027008056640625,-0.0010528564453125,-0.0045166015625,0.0334320068359375,0.0301513671875,0.0283660888671875,-0.0227508544921875,-0.0068359375,0.023681640625,0.008880615234375,-0.019287109375,-0.0222320556640625,-0.0139617919921875,-0.0116729736328125,-0.033782958984375,-0.0431976318359375,-0.03173828125,-0.0267181396484375,-0.00762939453125,0.00714111328125,-0.0098724365234375,-0.0186767578125,-0.002777099609375,0.02154541015625,0.0117340087890625,0.003265380859375,0.0124969482421875,0.0265350341796875,0.0001678466796875,-0.0023345947265625,-0.0019989013671875,-0.00701904296875,-0.00958251953125,-0.020111083984375,-0.02252197265625,-0.018341064453125,-0.0171051025390625,-0.0161285400390625,-0.0279998779296875,-0.022613525390625,-0.0290069580078125,-0.02081298828125,-0.013214111328125,-0.023712158203125,-0.0264129638671875,-0.0254974365234375,-0.0092315673828125,-0.01300048828125,-0.0083465576171875,-0.0055694580078125,0.0002593994140625,0.004852294921875,0.00347900390625,0.0091094970703125,-0.0120697021484375,-0.019805908203125,-0.0139923095703125,0.000396728515625,-0.0099945068359375,-0.00408935546875,-0.017730712890625,0.0158843994140625,0.0136566162109375,0.0106964111328125,-0.032318115234375,-0.0281524658203125,-0.0008392333984375,0.001312255859375,-0.0537567138671875,-0.068603515625,-0.0449066162109375,0.00970458984375,-0.000762939453125,-0.033721923828125,0.01141357421875,0.070648193359375,0.052032470703125,-0.00958251953125,-0.0241241455078125,0.0072479248046875,0.003570556640625,-0.03179931640625,-0.049285888671875,-0.04400634765625,-0.0489044189453125,-0.094940185546875,-0.0527496337890625,-0.041778564453125,-0.0456390380859375,-0.0400238037109375,-0.052001953125,-0.042510986328125,-0.0450897216796875,-0.058197021484375,-0.0633392333984375,-0.0471649169921875,-0.0326385498046875,-0.040802001953125,-0.04388427734375,-0.04412841796875,-0.0042724609375,-0.0120697021484375,-0.0251922607421875,-0.0340728759765625,-0.011749267578125,-0.012725830078125,0.02288818359375,0.0015411376953125,-0.0143585205078125,0.00738525390625,-0.029327392578125,-0.07452392578125,-0.0772857666015625,-0.065185546875,-0.0762939453125,-0.1027069091796875,-0.073211669921875,-0.034271240234375,-0.042449951171875,-0.0253753662109375,-0.0136260986328125,-0.010009765625,0.000396728515625,-0.01171875,0.0124969482421875,0.0364532470703125,0.019287109375,0.01385498046875,0.017913818359375,0.016021728515625,-0.0178375244140625,-0.02685546875,-0.019439697265625,-1.52587890625e-05,-0.025970458984375,-0.04180908203125,-0.01458740234375,-0.00067138671875,0.0141448974609375,0.0122222900390625,0.00079345703125,-0.0161895751953125,-0.040740966796875,-0.0207977294921875,-0.0324554443359375,-0.0269927978515625,-0.02557373046875,-0.025970458984375,-0.0133209228515625,-0.0026702880859375,0.00714111328125,-0.0054931640625,-0.0155029296875,0.0015106201171875,0.0078125,0.00274658203125,-0.007598876953125,-0.008697509765625,-0.0241241455078125,-0.0329742431640625,-0.0221405029296875,-0.0161590576171875,-0.015167236328125,-0.0191650390625,-0.02154541015625,-0.016693115234375,-0.026763916015625,-0.026092529296875,-0.0256195068359375,-0.0171966552734375,-0.0446014404296875,-0.068634033203125,-0.0443878173828125,-0.0099029541015625,0.00164794921875,-0.0132904052734375,-0.0158843994140625,-0.00384521484375,-0.022003173828125,-0.0352020263671875,-0.0452728271484375,-0.0369415283203125,-0.0300750732421875,-0.0489044189453125,-0.03271484375,-0.016510009765625,-0.0469818115234375,-0.0066070556640625,-0.0045013427734375,-0.00506591796875,-0.0442352294921875,-0.0298309326171875,-0.04119873046875,-0.0199737548828125,-0.0300140380859375,-0.0262603759765625,-0.0289459228515625,-0.0316314697265625,-0.0327301025390625,-0.02764892578125,-0.0500640869140625,-0.0174713134765625,-0.026885986328125,-0.046783447265625,-0.0280303955078125,-0.0058135986328125,-0.0543212890625,-0.0254058837890625,0.0069580078125,-0.0064697265625,-0.0413818359375,-0.053680419921875,0.0159149169921875,0.015380859375,-0.0066986083984375,-0.007659912109375,0.0023040771484375,-0.0101470947265625,-0.0169219970703125,-0.031036376953125,-0.0188751220703125,-0.0301513671875,-0.0550994873046875,-0.054779052734375,-0.0220184326171875,-0.0012969970703125,-0.0294952392578125,-0.0285186767578125,-0.0068206787109375,-0.005218505859375,0.0055084228515625,-0.0157928466796875,0.000396728515625,0.027252197265625,0.0257415771484375,0.0264892578125,0.0086822509765625,-0.0033416748046875,-0.0128326416015625,-0.0455322265625,-0.0453338623046875,-0.0536956787109375,-0.0633087158203125,-0.0566253662109375,-0.048553466796875,-0.0590667724609375,-0.0402679443359375,-0.012237548828125,-0.01104736328125,-0.01611328125,0.01080322265625,0.0131072998046875,0.0200042724609375,-0.0026397705078125,-0.000213623046875,0.0076141357421875,0.015960693359375,-0.02215576171875,-0.031646728515625,-0.0244903564453125,-0.0438232421875,-0.0421295166015625,-0.0308990478515625,-0.0398712158203125,-0.05462646484375,-0.0431365966796875,-0.040618896484375,-0.0257415771484375,-0.0417022705078125,-0.067413330078125,-0.0630340576171875,-0.0549468994140625,-0.03900146484375,-0.0450897216796875,-0.0303802490234375,-0.026702880859375,-0.0104522705078125,-0.0125732421875,-0.0041656494140625,-0.0280609130859375,-0.0350341796875,-0.039154052734375,-0.0142822265625,-0.000213623046875,-0.0043487548828125,0.0086212158203125,-0.0023956298828125,0.00408935546875,0.033111572265625,0.0292205810546875,0.012176513671875,0.0067901611328125,0.031402587890625,0.016571044921875,-0.0196685791015625,-0.048370361328125,-0.0479278564453125,-0.0268707275390625,-0.068878173828125,-0.10906982421875,-0.081939697265625,-0.0762786865234375,-0.053192138671875,-0.0513458251953125,-0.04095458984375,-0.0848236083984375,-0.079864501953125,-0.063323974609375,-0.0551300048828125,-0.062347412109375,-0.0581817626953125,-0.0355072021484375,-0.009765625,0.01116943359375,-0.0135345458984375,-0.003204345703125,0.0085906982421875,-0.0133056640625,0.002471923828125,-0.00921630859375,-0.0137786865234375,-0.0374908447265625,-0.009857177734375,0.008880615234375,0.017852783203125,0.001495361328125,0.0113372802734375,0.0230712890625,0.0306854248046875,0.0138702392578125,-0.00872802734375,-0.0024261474609375,0.00225830078125,-0.0023651123046875,-0.022979736328125,-0.019073486328125,-0.0011749267578125,-0.000274658203125,-0.0076751708984375,0.006500244140625,0.0182952880859375,0.031341552734375,0.036590576171875,0.0242462158203125,0.048553466796875,0.0827178955078125,0.0455780029296875,0.0364227294921875,0.024200439453125,0.0188140869140625,0.00042724609375,-0.027069091796875,-0.0193939208984375,0.0164337158203125,0.078216552734375,0.1315155029296875,0.06292724609375,0.0611419677734375,0.062347412109375,0.041015625,0.012176513671875,-0.035064697265625,-0.03997802734375,-0.032928466796875,-0.0117950439453125,0.0177001953125,-0.003448486328125,-0.109832763671875,-0.13323974609375,-0.122772216796875,-0.11077880859375,-0.1713409423828125,-0.1571807861328125,-0.113677978515625,-0.1098785400390625,-0.0771484375,-0.06732177734375,-0.0465850830078125,-0.033355712890625,-0.025299072265625,-0.0250396728515625,-0.0432281494140625,-0.0442352294921875]","[0.509674072265625,0.5174713134765625,0.5476531982421875,0.5937957763671875,0.6514129638671875,0.6953277587890625,0.7235870361328125,0.733978271484375,0.7822723388671875,0.8232269287109375,0.87115478515625,0.875732421875,0.9075927734375,0.9614715576171875,1.00439453125,1.035491943359375,1.0450897216796875,1.0193634033203125,1.0042266845703125,0.98162841796875,0.967681884765625,0.966705322265625,0.955718994140625,0.9359588623046875,0.9131927490234375,0.910003662109375,0.9054412841796875,0.8824920654296875,0.8639068603515625,0.8458251953125,0.8438568115234375,0.837921142578125,0.861053466796875,0.86956787109375,0.8411407470703125,0.821380615234375,0.8379058837890625,0.823760986328125,0.789886474609375,0.77935791015625,0.8015899658203125,0.808135986328125,0.7740936279296875,0.751861572265625,0.7504119873046875,0.758758544921875,0.74176025390625,0.72967529296875,0.72723388671875,0.782318115234375,0.816070556640625,0.809295654296875,0.79608154296875,0.846405029296875,0.86871337890625,0.8780975341796875,0.87591552734375,0.907470703125,0.9999237060546875,1.0580291748046875,1.0340576171875,1.04730224609375,1.112762451171875,1.1819000244140625,1.1808013916015625,1.215576171875,1.2454986572265625,1.2833099365234375,1.334381103515625,1.355682373046875,1.321624755859375,1.3036956787109375,1.384521484375,1.45928955078125,1.4715423583984375,1.4406280517578125,1.4407958984375,1.495941162109375,1.5568695068359375,1.532989501953125,1.476287841796875,1.467987060546875,1.5173492431640625,1.506561279296875,1.4417266845703125,1.3613433837890625,1.3241729736328125,1.2902679443359375,1.2307281494140625,1.1942291259765625,1.189544677734375,1.222259521484375,1.2717742919921875,1.2938079833984375,1.3024749755859375,1.323089599609375,1.2794952392578125,1.2454681396484375,1.1805572509765625,1.0987701416015625,1.0442962646484375,1.0229949951171875,1.0130462646484375,0.9798583984375,0.93560791015625,0.885284423828125,0.841400146484375,0.788482666015625,0.73944091796875,0.715057373046875,0.71978759765625,0.7390289306640625,0.741424560546875,0.7518310546875,0.7312774658203125,0.691680908203125,0.6586761474609375,0.6365203857421875,0.61907958984375,0.63568115234375,0.667816162109375,0.7238922119140625,0.7637481689453125,0.7833251953125,0.7841644287109375,0.81011962890625,0.8401641845703125,0.9017791748046875,0.961669921875,0.987579345703125,1.0118255615234375,1.02288818359375,0.978912353515625,0.976043701171875,0.983642578125,0.972076416015625,0.9590301513671875,0.936767578125,0.9283294677734375,0.940032958984375,0.946807861328125,0.930938720703125,0.9088592529296875,0.8942413330078125,0.8979949951171875,0.9170989990234375,0.92205810546875,0.9111480712890625,0.8885955810546875,0.8824310302734375,0.8647613525390625,0.83935546875,0.8083343505859375,0.7952728271484375,0.805877685546875,0.816253662109375,0.7667083740234375,0.7195587158203125,0.7009124755859375,0.7049102783203125,0.729248046875,0.7262725830078125,0.6310882568359375,0.626739501953125,0.7768402099609375,0.8453369140625,0.8258209228515625,0.814788818359375,0.8685455322265625,0.934539794921875,0.9683990478515625,0.9949493408203125,1.041534423828125,1.050384521484375,1.0087127685546875,0.9874420166015625,1.0197296142578125,1.0468902587890625,1.1102294921875,1.1647491455078125,1.1630401611328125,1.144439697265625,1.1630401611328125,1.2022247314453125,1.224365234375,1.23724365234375,1.2683563232421875,1.3083648681640625,1.3427734375,1.3944244384765625,1.4360809326171875,1.451324462890625,1.4703521728515625,1.4573516845703125,1.534698486328125,1.6262969970703125,1.6728973388671875,1.61474609375,1.533538818359375,1.468292236328125,1.4459991455078125,1.42230224609375,1.344146728515625,1.2691497802734375,1.2492523193359375,1.2487640380859375,1.3094940185546875,1.3738861083984375,1.4164276123046875,1.4240570068359375,1.33868408203125,1.222686767578125,1.139404296875,1.14349365234375,1.1028900146484375,1.02667236328125,0.9661865234375,0.9332275390625,0.907806396484375,0.916961669921875,0.9359588623046875,0.934417724609375,0.8687896728515625,0.7943878173828125,0.693572998046875,0.6201171875,0.609222412109375,0.6157073974609375,0.6194000244140625,0.61090087890625,0.6099395751953125,0.6373748779296875,0.650115966796875,0.7034759521484375,0.75811767578125,0.7361602783203125,0.6991424560546875,0.712646484375,0.732696533203125,0.7446441650390625,0.809722900390625,0.8462982177734375,0.8812255859375,0.92138671875,0.9917755126953125,1.025726318359375,1.02276611328125,0.995758056640625,0.985626220703125,0.98095703125,0.971954345703125,0.977386474609375,0.964996337890625,0.944793701171875,0.9308319091796875,0.92645263671875,0.9322967529296875,0.921630859375,0.88299560546875,0.8365631103515625,0.8126220703125,0.798583984375,0.7822265625,0.7582855224609375,0.737274169921875,0.7002716064453125,0.6991119384765625,0.70831298828125,0.69171142578125,0.70269775390625,0.7293701171875,0.733184814453125,0.70220947265625,0.63873291015625,0.58233642578125,0.5448760986328125,0.5784149169921875,0.6728363037109375,0.756011962890625,0.82855224609375,0.91119384765625,1.0532989501953125,1.0987548828125,1.146484375,1.1864776611328125,1.2062530517578125,1.15765380859375,1.15606689453125,1.202606201171875,1.19256591796875,1.228424072265625,1.2691497802734375,1.2570953369140625,1.2573089599609375,1.247467041015625,1.2255859375,1.214111328125,1.261016845703125,1.320556640625,1.348175048828125,1.3835906982421875,1.448883056640625,1.517913818359375,1.530731201171875,1.53179931640625,1.5482025146484375,1.532562255859375,1.5417633056640625,1.5722198486328125,1.547210693359375,1.479949951171875,1.41143798828125,1.35394287109375,1.315887451171875,1.27838134765625,1.2338104248046875,1.1861724853515625,1.144805908203125,1.1261138916015625,1.1217041015625,1.1460723876953125,1.168701171875,1.198638916015625,1.2006683349609375,1.1859893798828125,1.1450042724609375,1.126922607421875,1.13677978515625,1.1298370361328125,1.0937347412109375,1.014678955078125,0.9540557861328125,0.9305572509765625,0.8958587646484375,0.842987060546875,0.783660888671875,0.7519683837890625,0.7312774658203125,0.708404541015625,0.712646484375,0.731658935546875,0.72503662109375,0.721527099609375,0.707916259765625,0.7119293212890625,0.7064666748046875,0.6967010498046875,0.6588897705078125,0.6761627197265625,0.6978759765625,0.7136688232421875,0.712677001953125,0.7220458984375,0.7502593994140625,0.7968292236328125,0.8612213134765625,0.8996734619140625,0.91754150390625,0.91558837890625,0.90771484375,0.919097900390625,0.9528961181640625,0.99951171875,1.032928466796875,1.0544281005859375,1.02252197265625,0.976043701171875,0.931243896484375,0.89605712890625,0.859893798828125,0.85528564453125,0.8367462158203125,0.8137359619140625,0.7839508056640625,0.8020172119140625,0.8272857666015625,0.81756591796875,0.791046142578125,0.7716217041015625,0.762908935546875,0.822784423828125,0.85150146484375,0.820892333984375,0.7346038818359375,0.68603515625,0.65997314453125,0.67999267578125,0.6456451416015625,0.643035888671875,0.7041473388671875,0.78216552734375,0.8421783447265625,0.92047119140625,0.9843292236328125,1.006103515625,0.9903106689453125,1.0532073974609375,1.1175537109375,1.1022491455078125,1.042816162109375,1.0111083984375,1.037841796875,1.1245269775390625,1.206573486328125,1.21051025390625,1.262420654296875,1.33172607421875,1.39447021484375,1.422271728515625,1.43865966796875,1.45013427734375,1.453765869140625,1.5117950439453125,1.559539794921875,1.5559539794921875,1.5066986083984375,1.497772216796875,1.474700927734375,1.4237518310546875,1.3759613037109375,1.3797454833984375,1.382293701171875,1.379913330078125,1.3607940673828125,1.36553955078125,1.3806304931640625,1.3680267333984375,1.3009490966796875,1.232147216796875,1.2169952392578125,1.2535552978515625,1.2866058349609375,1.3082733154296875,1.3297576904296875,1.3594512939453125,1.3286285400390625,1.2205810546875,1.1110687255859375,1.0276947021484375,1.0030670166015625,0.9736785888671875,0.93524169921875,0.911346435546875,0.870208740234375,0.808319091796875,0.739044189453125,0.741119384765625,0.7854461669921875,0.795989990234375,0.777008056640625,0.727203369140625,0.6928863525390625,0.6893463134765625,0.6774444580078125,0.6649627685546875,0.630615234375,0.61279296875,0.6200408935546875,0.646697998046875,0.6136627197265625,0.71417236328125,0.7964324951171875,0.8400115966796875,0.849822998046875,0.891571044921875,0.9344329833984375,0.956512451171875,0.966217041015625,0.986328125,0.99615478515625,0.9679718017578125,0.9405975341796875,0.931976318359375,0.9335784912109375,0.9407196044921875]","[0.050997138023376465,0.166732519865036,0.19828246533870697,0.15493153035640717,0.04099084436893463,-0.0189630389213562,0.051059454679489136,0.06387831270694733,-0.10653523355722427,-0.3310959041118622,-0.31970158219337463,-0.07225768268108368,0.18858030438423157,0.2873058021068573,0.25023114681243896,0.13873738050460815,0.00794447585940361,-0.04273547977209091,-0.031087610870599747,-0.006394249852746725,0.02171541564166546,7.80306218075566e-05,-0.01025689858943224,0.051601409912109375,0.11377370357513428,0.11557293683290482,0.026081135496497154,-0.042216427624225616,-0.03466103971004486,-0.006371879018843174,0.021820077672600746,0.1382785141468048,0.15259726345539093,0.06223967298865318,0.08568108081817627,0.11204078048467636,0.0062155514024198055,-0.06389482319355011,0.06907147914171219,0.19109831750392914,0.10167176276445389,-0.10542655736207962,-0.13637009263038635,-0.0937560498714447,-0.18686814606189728,-0.236892431974411,-0.12810683250427246,0.13146401941776276,0.2228786200284958,0.106424979865551,-0.10835470259189606,-0.19124531745910645,-0.16807769238948822,-0.277982622385025,-0.2598715126514435,-0.1116570234298706,0.1682766228914261,0.3801113963127136,0.12604661285877228,-0.12111710011959076,0.036560140550136566,0.3206006586551666,0.2804609537124634,0.08550318330526352,0.17383277416229248,0.26984238624572754,0.27321314811706543,0.29013460874557495,0.09123484045267105,-0.1663234680891037,-0.050625625997781754,0.32668304443359375,0.3443203568458557,0.0724550262093544,-0.08020962029695511,-0.058283280581235886,-0.00433056615293026,0.03105165995657444,-0.12271393835544586,-0.19906330108642578,0.08733490854501724,0.334133505821228,0.13104350864887238,-0.23087503015995026,-0.39362531900405884,-0.39956656098365784,-0.4465724229812622,-0.5006452798843384,-0.35727691650390625,-0.02732563018798828,0.35926496982574463,0.5869202017784119,0.5814151763916016,0.4245917499065399,0.17932209372520447,-0.03297712281346321,-0.12432435154914856,-0.3401682376861572,-0.5395516157150269,-0.31020259857177734,0.11366531252861023,0.23962856829166412,0.11251296103000641,0.010436128824949265,-0.005815810989588499,-0.17313024401664734,-0.44193747639656067,-0.32600128650665283,0.047687094658613205,0.2558496296405792,0.3666563034057617,0.43055006861686707,0.3346480131149292,0.05570560693740845,-0.05074173957109451,-0.011119229719042778,-0.02028396539390087,0.016522251069545746,0.15754781663417816,0.2419857382774353,0.211151123046875,0.1166861355304718,-0.06223328039050102,-0.2323608100414276,-0.26365959644317627,-0.17061062157154083,-0.008618521504104137,0.1208859384059906,0.19918633997440338,0.16554822027683258,-0.06566130369901657,-0.20666024088859558,-0.12923681735992432,-0.044443629682064056,-0.05390956997871399,-0.07201853394508362,-0.08390608429908752,0.029462818056344986,0.15698455274105072,0.1442383974790573,0.042145054787397385,-0.07050585746765137,-0.06614892929792404,0.04556215927004814,0.11764513701200485,0.07204116880893707,-0.04049522802233696,-0.06137707456946373,-0.03220400959253311,-0.09052351117134094,-0.13472479581832886,-0.14700542390346527,-0.03912529721856117,0.17688822746276855,0.1514023095369339,-0.1145193874835968,-0.32046428322792053,-0.2573913335800171,-0.06109477952122688,-0.04031466692686081,-0.24572187662124634,-0.3439192771911621,0.1105576679110527,0.54066401720047,0.2135612815618515,-0.3634530305862427,-0.4762943685054779,-0.2968721389770508,-0.15084676444530487,-0.22898738086223602,-0.2420688271522522,-0.18249870836734772,-0.3670797348022461,-0.49328720569610596,-0.26571476459503174,0.07255622744560242,0.2507065236568451,0.4205096662044525,0.4831642508506775,0.26009601354599,0.033848509192466736,0.16812749207019806,0.2303011119365692,0.2767903208732605,0.2801259160041809,0.2558717131614685,0.07738853245973587,-0.05439320206642151,0.09750551730394363,0.12992684543132782,-0.13642334938049316,-0.30102455615997314,0.03062049299478531,0.5555617809295654,0.6399490833282471,0.5142103433609009,0.1620301753282547,-0.150909885764122,-0.2083372324705124,-0.32221293449401855,-0.6477028727531433,-0.8103943467140198,-0.7872509360313416,-0.6194645762443542,-0.11862944811582565,0.5720075964927673,0.8468503355979919,0.6470463871955872,0.2773993909358978,-0.1058417409658432,-0.3942519724369049,-0.355801522731781,-0.1875067800283432,-0.19700920581817627,-0.1512417197227478,0.0586039237678051,0.35429975390434265,0.4748232364654541,0.46655306220054626,0.4167463481426239,0.17935962975025177,-0.19831867516040802,-0.5659387707710266,-0.6897760033607483,-0.37568575143814087,0.030702251940965652,0.21162515878677368,0.4018678069114685,0.660204291343689,0.7189408540725708,0.6208755373954773,0.5856019258499146,0.66094970703125,0.36549168825149536,-0.138040691614151,-0.3723362684249878,-0.4154036045074463,-0.46052899956703186,-0.41101524233818054,-0.21669262647628784,-0.05674184113740921,0.09213392436504364,0.21073859930038452,0.2910313010215759,0.18293945491313934,0.02538871392607689,-0.057628143578767776,-0.06492973119020462,-0.07963970303535461,-0.07193145155906677,-0.08462700247764587,-0.12842294573783875,-0.10626385360956192,-0.07286941260099411,-0.06479950249195099,-0.0949813723564148,-0.17585544288158417,-0.21107496321201324,-0.182068333029747,-0.07092530280351639,0.056290969252586365,0.03551112115383148,-0.1632019728422165,-0.33825555443763733,-0.34179621934890747,-0.14469672739505768,0.0479547418653965,0.03591166064143181,0.018139589577913284,0.06557022035121918,0.0659308135509491,-0.14005936682224274,-0.4442586898803711,-0.6957314014434814,-0.6812078356742859,-0.41759803891181946,-0.08616045117378235,-0.13821353018283844,-0.38705530762672424,-0.11816605180501938,0.29814034700393677,0.3806932866573334,0.2859020531177521,0.21555092930793762,0.05571386218070984,-0.02605210617184639,0.11799108237028122,0.2235659807920456,0.27371302247047424,0.3949925899505615,0.3581424355506897,0.17305433750152588,0.025788720697164536,-0.03183995559811592,-0.017116935923695564,0.012593289837241173,0.2263106405735016,0.2843236029148102,0.13311517238616943,0.14631247520446777,0.3558063209056854,0.36209455132484436,0.16876345872879028,0.10598821938037872,0.20696942508220673,0.21250134706497192,0.19344483315944672,0.19336892664432526,0.030975226312875748,-0.15709428489208221,-0.32136791944503784,-0.39688238501548767,-0.30918821692466736,-0.17936789989471436,-0.24736718833446503,-0.33985236287117004,-0.3627781867980957,-0.21576078236103058,-0.10028985142707825,0.017352892085909843,0.1089714914560318,0.15244972705841064,0.12131097912788391,-0.015744341537356377,0.03416595980525017,0.27612507343292236,0.41879191994667053,0.2981429994106293,0.03766881674528122,-0.16242752969264984,-0.11119735985994339,0.006323942448943853,-0.0006551376427523792,-0.17989599704742432,-0.29226940870285034,-0.20053710043430328,-0.07716535776853561,0.015956595540046692,0.14315955340862274,0.20053549110889435,0.12182417511940002,0.06081221625208855,0.07386357337236404,0.10678929835557938,0.015486814081668854,-0.1147225871682167,-0.11184077709913254,0.022180402651429176,0.03195899724960327,-0.18783514201641083,-0.3574257791042328,-0.29637306928634644,-0.08227063715457916,0.22024954855442047,0.37657684087753296,0.2617301344871521,0.09063349664211273,0.006997722201049328,-0.01703570783138275,0.03286633640527725,0.12302392721176147,0.2703324258327484,0.3969537317752838,0.38428109884262085,0.14339497685432434,-0.110544353723526,-0.20822137594223022,-0.23029685020446777,-0.19578973948955536,-0.14524614810943604,-0.15482500195503235,-0.20140022039413452,-0.11048629879951477,0.10266965627670288,0.2504228949546814,0.20031951367855072,0.12739869952201843,0.12965627014636993,0.14179015159606934,0.10844578593969345,-0.10513440519571304,-0.3598354160785675,-0.7135250568389893,-0.7923460602760315,-0.6283129453659058,-0.5367337465286255,-0.5773925185203552,-0.40293359756469727,-0.05046823248267174,0.1993836760520935,0.26136156916618347,0.4612211585044861,0.5605046153068542,0.38680577278137207,0.24825668334960938,0.34370410442352295,0.2957861125469208,-0.12830710411071777,-0.44635510444641113,-0.3738558888435364,0.05853361636400223,0.4407196044921875,0.37881842255592346,0.27653226256370544,0.4742559790611267,0.6219072341918945,0.3711594343185425,0.19471995532512665,0.19882947206497192,0.061884671449661255,-0.1084042340517044,2.9827404432580806e-05,0.10363158583641052,-0.15078844130039215,-0.3664664030075073,-0.23037168383598328,-0.15328888595104218,-0.15695792436599731,-0.03183116763830185,0.21088294684886932,0.27509334683418274,0.1758032590150833,0.08737405389547348,0.12222976982593536,0.07697920501232147,-0.1685224324464798,-0.4679352343082428,-0.5240078568458557,-0.2540711462497711,0.1472613513469696,0.33254626393318176,0.43003925681114197,0.5028327703475952,0.4530452489852905,0.10343451052904129,-0.3891006112098694,-0.5952889323234558,-0.40912359952926636,-0.19274495542049408,-0.18524308502674103,-0.09184656292200089,0.08767446130514145,0.20323939621448517,0.13151408731937408,0.19457374513149261,0.5321016907691956,0.7474417090415955,0.49960261583328247,0.12457282096147537,-0.1260756403207779,-0.1552942544221878,-0.13358549773693085,-0.17422319948673248,-0.28819212317466736,-0.3008463978767395,-0.21960052847862244,-0.16038328409194946,-0.14729011058807373,0.05746036395430565,0.24101793766021729,-0.07253146171569824,-0.40942585468292236,-0.3479667603969574,-0.07833448797464371,0.1482512503862381,0.21692778170108795,0.12485884130001068,0.07511978596448898,-0.07382522523403168,-0.22677269577980042,-0.22531381249427795,-0.15173733234405518,-0.11164503544569016,-0.1371820867061615,-0.10319323092699051]","[-0.21364730596542358,-0.13000327348709106,-0.047331031411886215,-0.06949092447757721,0.0046658581122756,0.07449900358915329,-0.017764350399374962,-0.14938069880008698,-0.20555049180984497,-0.0067657604813575745,0.22341018915176392,0.08140431344509125,-0.24903512001037598,-0.3482341468334198,-0.395589143037796,-0.38699886202812195,-0.22706031799316406,-0.056350890547037125,0.03997351601719856,-0.057682737708091736,-0.1323694884777069,-0.15821866691112518,-0.1429976373910904,-0.14903129637241364,-0.1814669966697693,-0.16911818087100983,-0.08582568913698196,0.019240539520978928,0.006462426856160164,0.027577299624681473,0.13749395310878754,0.06153952702879906,-0.03404505178332329,-0.015982428565621376,-0.09005239605903625,-0.20263566076755524,-0.1707267314195633,-0.10807746648788452,-0.15862426161766052,-0.28367114067077637,-0.40268674492836,-0.2891300618648529,-0.1507146805524826,-0.16250848770141602,-0.26261910796165466,-0.24083605408668518,-0.20799367129802704,-0.23318397998809814,-0.35555917024612427,-0.4186880588531494,-0.2150808870792389,-0.011814581230282784,0.060508616268634796,0.18968364596366882,0.334318608045578,0.276940256357193,0.043601538985967636,-0.025909096002578735,0.26605406403541565,0.6408622860908508,0.598703920841217,0.16545900702476501,-0.08224853128194809,0.15874676406383514,0.37924426794052124,0.3964991569519043,0.29343748092651367,0.06613507866859436,-0.009465673007071018,0.28154194355010986,0.3928213119506836,0.0535079650580883,-0.1196552962064743,0.00863370206207037,0.25094300508499146,0.3582146167755127,0.11855407804250717,-0.06382345408201218,0.1420048028230667,0.43690168857574463,0.35283422470092773,-0.04758243262767792,-0.12678538262844086,-0.013630857691168785,0.043414853513240814,0.08857274055480957,0.14278991520404816,0.21172502636909485,0.20821498334407806,0.18111252784729004,0.05864919722080231,-0.011895009316504002,0.07048055529594421,0.0305176954716444,0.017249559983611107,0.038127679377794266,-0.09529722481966019,-0.055563658475875854,0.1417882889509201,0.21221399307250977,0.035942818969488144,-0.05739351734519005,0.007228351663798094,0.14510126411914825,0.18273785710334778,0.1087094321846962,0.085690937936306,0.09801524877548218,0.002641855739057064,-0.18644577264785767,-0.3174615800380707,-0.3822706639766693,-0.3366701602935791,-0.1582373082637787,-0.06219972297549248,-0.1394582986831665,-0.2476779669523239,-0.2646028995513916,-0.2011442929506302,-0.09022469818592072,-0.09248412400484085,-0.09901286661624908,-0.052317533642053604,-0.006281598005443811,0.05379026010632515,0.16510160267353058,0.10194527357816696,-0.01683650352060795,-0.14305542409420013,-0.19984786212444305,0.007102384231984615,0.16841191053390503,-0.009043029509484768,-0.16507551074028015,-0.08456708490848541,0.015192268416285515,0.10581857711076736,0.11113663762807846,-0.04041826352477074,-0.1867363303899765,-0.12211765348911285,0.051058389246463776,0.10305821150541306,-0.018734805285930634,-0.08612503111362457,-0.0503702312707901,0.06700007617473602,0.08475829660892487,-0.0637558102607727,-0.12119859457015991,-0.030277211219072342,0.07821890711784363,0.011514442972838879,-0.3101046085357666,-0.5022404789924622,-0.22918231785297394,0.016936905682086945,-0.05608803778886795,-0.27828383445739746,-0.4644145369529724,-0.2662271559238434,0.025783393532037735,-0.3506981134414673,-0.7721009850502014,-0.6075621247291565,-0.1692313700914383,0.13343767821788788,0.10038572549819946,-0.09960541874170303,-0.014285994693636894,0.12228570133447647,0.06732551008462906,0.05384006351232529,0.22982095181941986,0.33645710349082947,0.17570844292640686,0.0213612150400877,-0.023153789341449738,0.03092888742685318,0.14224103093147278,0.32410696148872375,0.3485579788684845,0.2298305332660675,0.1994989961385727,0.11708800494670868,0.04842185974121094,0.22570715844631195,0.5169150233268738,0.3502429723739624,0.016762468963861465,0.16032975912094116,0.6464676856994629,0.9666739106178284,0.5407500863075256,-0.08712078630924225,-0.18674059212207794,0.016329970210790634,0.19929686188697815,0.11170575767755508,-0.20056718587875366,-0.11816445738077164,0.1834380030632019,0.3803132474422455,0.4854990541934967,0.3062041401863098,-0.02214311994612217,-0.005197159014642239,0.12511050701141357,0.14485812187194824,0.1862412393093109,0.17683656513690948,0.08053931593894958,-0.1304706633090973,-0.15862692892551422,-0.11643979698419571,-0.13842898607254028,-0.29250669479370117,-0.35427019000053406,-0.2079332172870636,-0.05355909839272499,-0.06332224607467651,-0.005481051746755838,0.12650920450687408,0.36789464950561523,0.4281441569328308,0.14213557541370392,-0.10867641121149063,-0.10808465629816055,-0.19362671673297882,-0.2919490337371826,-0.4574010968208313,-0.5369550585746765,-0.6876159310340881,-0.5423362255096436,-0.25396037101745605,-0.21082381904125214,-0.2865332365036011,-0.15824049711227417,-0.018267421051859856,-0.045095305889844894,-0.03736121952533722,-0.07146086543798447,-0.12906238436698914,-0.07507983595132828,0.03771169111132622,0.0038181741256266832,-0.007241667713969946,-0.02935629151761532,0.034697525203228,0.08210605382919312,0.016341155394911766,0.0051508196629583836,0.01065211184322834,0.03456197306513786,0.032830651849508286,0.06986723095178604,0.07105686515569687,0.12178342789411545,0.09602586179971695,-0.06316884607076645,-0.2524887025356293,-0.32786309719085693,-0.1803455352783203,-0.005089034326374531,0.011129883117973804,-0.18580448627471924,-0.32786762714385986,-0.28029078245162964,-0.22106286883354187,-0.20753374695777893,-0.30091428756713867,-0.4155905544757843,-0.31908372044563293,-0.13828596472740173,-0.013068663887679577,0.07675550132989883,0.13622361421585083,0.3227311670780182,0.6685380935668945,0.7100269794464111,0.4272511899471283,0.20950102806091309,0.029378129169344902,0.05769845098257065,0.26543059945106506,0.5252014398574829,0.34935107827186584,0.11171401292085648,0.04869883134961128,-0.03951838240027428,0.03056350164115429,0.1875230222940445,0.19723929464817047,0.04765540361404419,-0.041610561311244965,0.05035771429538727,0.0925682857632637,0.0315757691860199,0.12854786217212677,0.193217933177948,0.11647015064954758,0.09017197042703629,0.22028416395187378,0.16492849588394165,0.07716269791126251,0.19211138784885406,0.049065280705690384,-0.09593825042247772,-0.10827800631523132,-0.14444905519485474,-0.1004033014178276,-0.08816900849342346,-0.11495694518089294,-0.058766644448041916,0.056945573538541794,0.062381353229284286,0.002576608443632722,-0.13539564609527588,-0.04603780061006546,0.13555090129375458,0.12980380654335022,-0.0221503097563982,-0.09252167493104935,0.03840544447302818,0.09792176634073257,-0.07100652903318405,-0.2585178315639496,-0.32788971066474915,-0.2449711412191391,-0.07193464040756226,-0.06933619827032089,-0.21799172461032867,-0.3116588294506073,-0.21604707837104797,-0.039318379014730453,-0.007590008899569511,-0.09014160931110382,-0.16456390917301178,-0.322406530380249,-0.3482692837715149,-0.19102641940116882,-0.10388778150081635,-0.20818303525447845,-0.4007200002670288,-0.40327370166778564,-0.2479405552148819,-0.16638845205307007,-0.28789862990379333,-0.3797997832298279,-0.28432998061180115,-0.007072024047374725,0.06016027554869652,-0.006926083005964756,-0.12333764880895615,-0.14341655373573303,0.017919344827532768,0.10295354574918747,0.059426575899124146,0.10251545906066895,0.2026260793209076,0.23403993248939514,0.24724388122558594,0.1730993390083313,0.051968660205602646,0.033241309225559235,0.07252586632966995,0.08489678055047989,0.11307542026042938,0.11253959685564041,0.05543902516365051,0.05062242969870567,0.18525587022304535,0.3028371036052704,0.10126696527004242,-0.14126445353031158,-0.13686783611774445,-0.09297467768192291,-0.07538663595914841,-0.1583923101425171,-0.20196135342121124,-0.1127246841788292,-0.16199582815170288,-0.19611944258213043,-0.053996920585632324,-0.10573228448629379,-0.20524369180202484,-0.07557172328233719,-0.07226221263408661,-0.022763902321457863,-0.024170316755771637,-0.04252775385975838,-0.16764172911643982,-0.18973664939403534,0.00749040674418211,0.16284005343914032,0.03665308654308319,-0.10196764022111893,0.10149147361516953,0.34574276208877563,0.4587284326553345,0.3712787330150604,0.04798057675361633,-0.0465744249522686,0.057606570422649384,0.11126180738210678,0.05753732845187187,0.02082485519349575,0.15024809539318085,0.0664605125784874,0.07084780931472778,0.3297715187072754,0.3429826498031616,0.10362306237220764,0.10894006490707397,0.2390083223581314,0.286396861076355,0.337124764919281,0.3145901560783386,0.1853986233472824,0.022593725472688675,0.003896737238392234,0.06913352757692337,0.07298925518989563,-0.020539896562695503,-0.15382151305675507,-0.13348402082920074,0.1588791310787201,0.43008026480674744,0.3809231221675873,0.06933566182851791,-0.016985375434160233,0.058754127472639084,0.1016579195857048,-0.05144881084561348,-0.20085960626602173,-0.12195999175310135,-0.017601363360881805,0.007553257513791323,-0.07812622934579849,-0.10309495776891708,-0.05680575966835022,0.023141805082559586,0.03677212819457054,0.017967548221349716,0.12695156037807465,0.11614897847175598,-0.03652951493859291,-0.26671692728996277,-0.31494995951652527,-0.18993771076202393,-0.12921658158302307,-0.1308693289756775,-0.2315349578857422,-0.20222926139831543,-0.040174584835767746,0.05047222971916199,0.10565798729658127,0.13237561285495758,-0.0011555455857887864,-0.522050678730011,-0.4449247419834137,-0.005532450973987579,0.2494300752878189,0.040104009211063385,-0.31229132413864136,-0.394546777009964,-0.22809761762619019,-0.1193423718214035,-0.0739903375506401,-0.011565043590962887,0.01726021245121956,0.011867045424878597,0.0889730155467987,0.1840268224477768,0.2591626048088074]","[-0.012982644140720367,-0.06202502176165581,-0.0739743560552597,-0.022158298641443253,0.033308420330286026,0.06180664151906967,0.0836019515991211,0.09721310436725616,0.15747058391571045,0.12108727544546127,0.04428490623831749,0.06826774030923843,0.06284021586179733,0.07103343307971954,0.057079531252384186,0.08758657425642014,0.11179923266172409,0.06746319681406021,-0.024704547598958015,-0.05835891515016556,-0.09068862348794937,-0.12683384120464325,-0.09679099172353745,-0.0895858108997345,-0.05036889761686325,-0.03287645801901817,0.011382883414626122,0.008810269646346569,-0.01684768870472908,0.004829110112041235,-0.05537910386919975,-0.10147123038768768,-0.03515878692269325,-0.005607019178569317,-0.03798999264836311,-0.11933331936597824,-0.13091300427913666,-0.1545453667640686,-0.17938067018985748,-0.17084817588329315,-0.08277983218431473,-0.09255602955818176,-0.10166271030902863,-0.12607191503047943,-0.13621535897254944,-0.11642807722091675,-0.08799909800291061,-0.08484591543674469,-0.10633682459592819,-0.06464344263076782,-0.045464951545000076,-0.06304953992366791,-0.09362475574016571,-0.09433183073997498,-0.08043491840362549,-0.03741847723722458,-0.04345932602882385,-0.04872865602374077,-0.06163327023386955,-0.0008554073283448815,0.0268369410187006,-0.131315678358078,-0.25187644362449646,-0.19162748754024506,-0.0999218001961708,-0.0028993834275752306,0.03934181481599808,-0.02388855442404747,-0.021471736952662468,0.0297312643378973,-0.08505523949861526,-0.09751483798027039,-0.04706817492842674,-0.0009693906176835299,0.08504218608140945,0.10065656900405884,-0.017014669254422188,-0.0009989517275243998,0.056783922016620636,0.05594422668218613,0.002487126039341092,-0.07613737881183624,-0.04219059646129608,0.005520733073353767,0.09161780029535294,0.1804019957780838,0.16484461724758148,0.15607987344264984,0.11615084111690521,0.03395423665642738,-0.02484436333179474,-0.029993053525686264,-0.01769670471549034,-0.049136918038129807,-0.023802269250154495,-0.01673770137131214,0.053273074328899384,0.11125781387090683,0.1508190780878067,0.1472536325454712,0.09080313891172409,0.11620277166366577,0.15166223049163818,0.2642630636692047,0.28947150707244873,0.22809761762619019,0.12043347209692001,0.04723861813545227,0.11534816026687622,0.12483567744493484,0.014307833276689053,-0.024470189586281776,0.026632409542798996,0.0719442293047905,0.14813034236431122,0.1948176920413971,0.13399241864681244,0.08522701263427734,0.09514942020177841,0.10911423712968826,0.07993903756141663,0.0429871492087841,0.05709977075457573,0.04892280325293541,0.03886803612112999,0.037890125066041946,-0.015222095884382725,-0.038304511457681656,0.014460698701441288,0.023800937458872795,0.012911537662148476,0.03551565110683441,0.019482888281345367,-0.008932242169976234,-0.017498565837740898,-0.028239626437425613,-0.027632426470518112,-0.019177688285708427,-0.0392315573990345,-0.03617984056472778,-0.012180499732494354,-0.013745106756687164,-0.008167115971446037,0.007863249629735947,-0.0060144830495119095,0.0024839304387569427,-0.015453791245818138,-0.10452933609485626,-0.1386127471923828,-0.15986795723438263,-0.1847514659166336,-0.17137734591960907,-0.15062199532985687,-0.12068486958742142,-0.05252685770392418,-0.0702563226222992,-0.08800788968801498,-0.02394235134124756,0.041253164410591125,-0.03388819098472595,-0.08671678602695465,-0.09247826784849167,-0.08662757277488708,-0.15068644285202026,-0.15604925155639648,-0.0497656911611557,-0.03128814697265625,-0.0683918371796608,-0.01877022534608841,0.012384231202304363,0.022115156054496765,0.039328765124082565,0.06446154415607452,0.12127449363470078,0.04104064404964447,-0.05926252529025078,-0.08799004554748535,0.016630109399557114,0.03929627314209938,0.07154741883277893,0.07269471138715744,0.08019150793552399,0.09570389240980148,0.0005041363765485585,-0.11159390211105347,-0.019771307706832886,0.044263601303100586,-0.014668158255517483,-0.06260719150304794,-0.07020225375890732,0.03620274364948273,0.0752476155757904,0.06895057111978531,-0.04230431467294693,-0.15990737080574036,-0.2522660791873932,-0.12217198312282562,0.028207136318087578,-0.026519225910305977,0.020775586366653442,0.22919084131717682,0.2650902569293976,0.18089334666728973,0.11091746389865875,0.08553141355514526,0.13973553478717804,0.10759729892015457,0.0702027902007103,0.012869193218648434,0.05433860421180725,0.056654226034879684,-0.05227678641676903,-0.0459938570857048,-0.012123508378863335,-0.07040225714445114,-0.1128527820110321,-0.02424754947423935,0.00878869742155075,0.015802664682269096,0.020252007991075516,0.06667649745941162,0.1843983381986618,0.30126237869262695,0.37799549102783203,0.42984697222709656,0.258294939994812,0.15290725231170654,0.1730434149503708,0.3503364324569702,0.4410298466682434,0.21493174135684967,0.10414291173219681,0.1295340210199356,0.1751084327697754,0.12768898904323578,-0.011721104383468628,-0.09900807589292526,-0.10822713375091553,-0.14396515488624573,-0.1946895867586136,-0.1434253454208374,-0.11151614040136337,-0.12374324351549149,-0.12160659581422806,-0.07728520035743713,-0.025736521929502487,-0.011516307480633259,-0.04379435256123543,-0.03882009908556938,-0.06616383790969849,-0.07466118782758713,-0.051120974123477936,-0.05974562093615532,-0.05920180305838585,-0.047929707914590836,-0.04029682278633118,-0.04736937955021858,-0.08271405100822449,-0.12124360352754593,-0.13613812625408173,-0.0807981789112091,-0.044923264533281326,-0.05905533209443092,-0.08529864996671677,-0.11851199716329575,-0.12730522453784943,-0.08695060759782791,-0.028737105429172516,-0.0428641103208065,-0.12761841714382172,-0.13901513814926147,-0.11895062029361725,-0.10632617026567459,-0.13760899007320404,-0.10630273818969727,-0.1451966017484665,-0.31507033109664917,-0.3026144504547119,-0.21298125386238098,-0.3128311336040497,-0.36720651388168335,-0.2771975100040436,-0.13997015357017517,-0.049542251974344254,0.004870655480772257,0.03239016234874725,-0.0029582392890006304,-0.06978920102119446,-0.057738661766052246,0.05931498855352402,0.06455902010202408,1.5978966985130683e-05,0.014360031113028526,-0.013195164501667023,-0.021439244970679283,0.01070723868906498,-0.025769012048840523,-0.029204225167632103,0.07497198134660721,0.058394599705934525,-0.014275342226028442,0.006961503066122532,0.05612265691161156,0.07459860295057297,0.04610278084874153,0.05702413618564606,-0.020678646862506866,-0.08098167181015015,-0.07108163088560104,0.021344169974327087,0.0114958006888628,-0.020801153033971786,0.03736840933561325,0.02400546707212925,-0.040883518755435944,-0.07607745379209518,-0.13535435497760773,-0.05396522954106331,0.020633639767766,0.030361633747816086,0.04933932051062584,-0.008234494365751743,-0.08155424892902374,-0.13288986682891846,-0.14699263870716095,-0.11227700859308243,-0.04954678192734718,-0.0013078784104436636,0.148540198802948,0.23465165495872498,0.23460690677165985,0.19014917314052582,0.13933978974819183,0.11295398324728012,0.08821028470993042,0.07860266417264938,0.04278421401977539,0.03917376697063446,0.056221991777420044,0.052800364792346954,0.03873594477772713,0.017520137131214142,-0.05586566403508186,-0.02315591834485531,0.0194285586476326,0.042942941188812256,0.06717317551374435,0.07401403784751892,0.1072034165263176,0.1742578148841858,0.14827628433704376,0.06306498497724533,0.06851248443126678,0.064285509288311,0.06390095502138138,0.08006740361452103,0.0638977587223053,0.07221294194459915,0.09649378061294556,0.07867377251386642,0.0331566222012043,-0.023000391200184822,-0.08508506417274475,-0.10153647512197495,-0.06882753223180771,-0.05855065956711769,-0.06546849012374878,-0.012925651855766773,0.018099641427397728,0.030954187735915184,0.0016429040115326643,-0.011603392660617828,-0.05420251935720444,-0.09381863474845886,-0.12626765668392181,-0.12021642178297043,-0.13186481595039368,-0.15851373970508575,-0.17711006104946136,-0.18631741404533386,-0.22409595549106598,-0.20888637006282806,-0.051046937704086304,-0.03335556015372276,-0.09821897745132446,0.0023257385473698378,0.0741133764386177,0.03142343461513519,0.06208893656730652,0.09103350341320038,0.032827187329530716,-0.029944051057100296,0.0473448783159256,0.10106988996267319,0.10135671496391296,0.04291311278939247,-0.032397620379924774,0.056220393627882004,0.08648189157247543,0.02881593629717827,-0.07818587869405746,-0.09829754382371902,-0.0888180211186409,-0.10167443007230759,-0.08610665798187256,-0.1137864887714386,-0.07096312195062637,-0.06903871893882751,-0.0758441612124443,0.023503994569182396,0.10272344946861267,0.00555215822532773,-0.02797357738018036,-0.009779393672943115,-0.030409304425120354,-0.0006226470577530563,0.019412314519286156,-0.013292103074491024,-0.0736616998910904,-0.08651358634233475,-0.053466685116291046,-0.018562499433755875,0.0057412427850067616,0.0224419254809618,0.08352498710155487,0.1615777164697647,0.26127687096595764,0.27385151386260986,0.14214089512825012,-0.05343686044216156,-0.09621495008468628,-0.0830264464020729,-0.09716010838747025,-0.15612488985061646,-0.17236565053462982,-0.06495929509401321,0.022156167775392532,0.06531162559986115,0.12265800684690475,0.17120105028152466,0.24053910374641418,0.31100448966026306,0.3241423964500427,0.3395117521286011,0.384755402803421,0.33914637565612793,0.10491576045751572,-0.15124917030334473,0.0508892796933651,0.3345431089401245,0.44120457768440247,0.4233398139476776,0.3450591266155243,0.3528640568256378,0.2500111758708954,0.08113986253738403,-0.353076308965683,-0.8934811949729919,-0.614101767539978,0.25508901476860046,0.8253514170646667,0.5961453914642334,0.30910244584083557,0.35750195384025574,0.3985724151134491,0.2560666799545288,0.09105826914310455,-0.06696704775094986,-0.15040788054466248,-0.10122036188840866,-0.05956505984067917,-0.05961539223790169,-0.085270956158638,-0.12462901324033737,-0.12271526455879211]",1,74,175,"[1.589717488309e+12,1.589717488353e+12,1.589717488386e+12,1.589717488422e+12,1.589717488423e+12,1.589717488472e+12,1.589717488501e+12,1.58971748858e+12,1.589717488582e+12,1.589717488583e+12,1.589717488627e+12,1.589717488628e+12,1.589717488662e+12,1.5897174887e+12,1.589717488737e+12,1.589717488766e+12,1.589717488767e+12,1.589717488808e+12,1.589717488838e+12,1.589717488875e+12,1.589717488875e+12,1.58971748891e+12,1.589717488939e+12,1.589717488974e+12,1.589717488974e+12,1.589717489019e+12,1.58971748902e+12,1.589717489102e+12,1.589717489103e+12,1.589717489104e+12,1.589717489104e+12,1.589717489105e+12,1.589717489147e+12,1.589717489147e+12,1.589717489178e+12,1.589717489218e+12,1.589717489218e+12,1.589717489219e+12,1.589717489219e+12,1.58971748925e+12,1.589717489301e+12,1.589717489301e+12,1.589717489302e+12,1.589717489303e+12,1.589717489351e+12,1.589717489352e+12,1.58971748938e+12,1.589717489447e+12,1.589717489448e+12,1.589717489477e+12,1.589717489479e+12,1.589717489542e+12,1.589717489554e+12,1.589717489555e+12,1.589717489555e+12,1.589717489582e+12,1.589717489591e+12,1.589717489628e+12,1.589717489653e+12,1.589717489677e+12,1.589717489678e+12,1.589717489739e+12,1.589717489763e+12,1.589717489763e+12,1.589717489786e+12,1.589717489833e+12,1.589717489834e+12,1.589717489925e+12,1.589717489925e+12,1.589717489926e+12,1.589717489927e+12,1.589717489927e+12,1.589717489928e+12,1.589717489939e+12,1.58971748998e+12,1.58971748998e+12,1.589717490042e+12,1.589717490042e+12,1.589717490042e+12,1.589717490045e+12,1.589717490098e+12,1.589717490151e+12,1.589717490152e+12,1.589717490152e+12,1.589717490153e+12,1.589717490202e+12,1.589717490238e+12,1.589717490295e+12,1.589717490299e+12,1.5897174903e+12,1.589717490315e+12,1.589717490385e+12,1.589717490386e+12,1.589717490386e+12,1.5897174904e+12,1.589717490431e+12,1.589717490464e+12,1.589717490517e+12,1.589717490517e+12,1.589717490518e+12,1.589717490568e+12,1.589717490569e+12,1.589717490569e+12,1.589717490569e+12,1.58971749057e+12,1.589717490593e+12,1.589717490634e+12,1.589717490682e+12,1.589717490683e+12,1.589717490707e+12,1.589717490709e+12,1.58971749071e+12,1.589717490733e+12,1.589717490733e+12,1.589717490796e+12,1.589717490805e+12,1.589717490805e+12,1.589717490841e+12,1.589717490887e+12,1.589717490915e+12,1.589717490916e+12,1.589717490916e+12,1.589717490917e+12,1.589717490969e+12,1.589717491012e+12,1.589717491012e+12,1.589717491013e+12,1.589717491013e+12,1.589717491042e+12,1.589717491113e+12,1.589717491114e+12,1.589717491115e+12,1.589717491148e+12,1.589717491184e+12,1.58971749122e+12,1.589717491221e+12,1.589717491221e+12,1.58971749126e+12,1.58971749126e+12,1.589717491318e+12,1.589717491319e+12,1.58971749132e+12,1.589717491321e+12,1.58971749136e+12,1.589717491401e+12,1.589717491403e+12,1.589717491448e+12,1.589717491473e+12,1.589717491474e+12,1.5897174915e+12,1.589717491503e+12,1.589717491503e+12,1.589717491557e+12,1.589717491558e+12,1.589717491628e+12,1.589717491629e+12,1.589717491629e+12,1.589717491651e+12,1.589717491675e+12,1.589717491684e+12,1.589717491685e+12,1.589717491716e+12,1.589717491717e+12,1.589717491767e+12,1.589717491808e+12,1.589717491809e+12,1.589717491838e+12,1.58971749184e+12,1.589717491841e+12,1.589717491841e+12,1.5897174919e+12,1.589717491901e+12,1.589717491973e+12,1.589717491975e+12,1.589717491998e+12,1.589717492027e+12,1.589717492028e+12,1.589717492079e+12,1.58971749208e+12,1.58971749208e+12,1.58971749208e+12,1.589717492105e+12,1.589717492105e+12,1.589717492153e+12,1.589717492182e+12,1.589717492183e+12,1.589717492183e+12,1.589717492236e+12,1.589717492237e+12,1.589717492289e+12,1.589717492289e+12,1.589717492289e+12,1.589717492334e+12,1.589717492364e+12,1.589717492402e+12,1.589717492403e+12,1.589717492436e+12,1.589717492472e+12,1.589717492517e+12,1.58971749258e+12,1.58971749258e+12,1.589717492581e+12,1.589717492582e+12,1.589717492582e+12,1.589717492624e+12,1.589717492625e+12,1.589717492691e+12,1.589717492692e+12,1.589717492693e+12,1.589717492729e+12,1.589717492731e+12,1.589717492769e+12,1.58971749277e+12,1.589717492771e+12,1.589717492773e+12,1.589717492774e+12,1.589717492796e+12,1.589717492797e+12,1.589717492836e+12,1.589717492917e+12,1.589717492918e+12,1.589717492977e+12,1.589717492978e+12,1.589717492997e+12,1.589717493027e+12,1.589717493032e+12,1.589717493034e+12,1.58971749307e+12,1.589717493071e+12,1.589717493101e+12,1.589717493128e+12,1.589717493129e+12,1.58971749313e+12,1.589717493181e+12,1.589717493254e+12,1.589717493255e+12,1.589717493255e+12,1.589717493256e+12,1.589717493276e+12,1.589717493307e+12,1.589717493308e+12,1.589717493364e+12,1.589717493365e+12,1.589717493387e+12,1.589717493432e+12,1.589717493437e+12,1.589717493463e+12,1.589717493465e+12,1.589717493467e+12,1.589717493469e+12,1.58971749347e+12,1.589717493497e+12,1.589717493498e+12,1.589717493499e+12,1.589717493566e+12,1.589717493567e+12,1.589717493568e+12,1.589717493611e+12,1.589717493615e+12,1.589717493639e+12,1.589717493673e+12,1.589717493713e+12,1.589717493714e+12,1.589717493752e+12,1.589717493784e+12,1.589717493784e+12,1.589717493822e+12,1.589717493855e+12,1.589717493901e+12,1.589717493902e+12,1.589717493956e+12,1.589717493983e+12,1.589717493984e+12,1.589717493986e+12,1.589717493986e+12,1.58971749404e+12,1.589717494059e+12,1.589717494059e+12,1.589717494107e+12,1.589717494134e+12,1.589717494162e+12,1.589717494162e+12,1.589717494163e+12,1.589717494197e+12,1.589717494225e+12,1.589717494255e+12,1.589717494286e+12,1.589717494286e+12,1.589717494286e+12,1.589717494339e+12,1.58971749437e+12,1.589717494371e+12,1.589717494372e+12,1.5897174944e+12,1.589717494503e+12,1.589717494504e+12,1.589717494504e+12,1.589717494504e+12,1.589717494507e+12,1.589717494508e+12,1.589717494563e+12,1.589717494564e+12,1.589717494565e+12,1.589717494616e+12,1.589717494666e+12,1.589717494667e+12,1.589717494668e+12,1.589717494669e+12,1.58971749467e+12,1.589717494671e+12,1.589717494725e+12,1.58971749475e+12,1.589717494751e+12,1.589717494798e+12,1.589717494799e+12,1.5897174948e+12,1.589717494826e+12,1.589717494827e+12,1.5897174949e+12,1.589717494901e+12,1.589717494901e+12,1.589717494934e+12,1.589717494982e+12,1.589717495034e+12,1.589717495035e+12,1.589717495036e+12,1.589717495081e+12,1.589717495082e+12,1.589717495083e+12,1.58971749511e+12,1.589717495146e+12,1.589717495147e+12,1.589717495208e+12,1.589717495209e+12,1.58971749521e+12,1.589717495231e+12,1.589717495261e+12,1.589717495262e+12,1.589717495314e+12,1.589717495339e+12,1.58971749534e+12,1.589717495341e+12,1.589717495342e+12,1.589717495412e+12,1.589717495413e+12,1.589717495414e+12,1.589717495467e+12,1.589717495489e+12,1.589717495513e+12,1.589717495513e+12,1.589717495516e+12,1.589717495517e+12,1.589717495563e+12,1.589717495605e+12,1.589717495605e+12,1.589717495606e+12,1.589717495619e+12,1.589717495657e+12,1.589717495657e+12,1.589717495688e+12,1.589717495724e+12,1.589717495774e+12,1.589717495838e+12,1.589717495839e+12,1.58971749589e+12,1.589717495891e+12,1.589717495891e+12,1.589717495982e+12,1.589717495983e+12,1.589717495984e+12,1.589717495984e+12,1.589717495985e+12,1.589717495985e+12,1.589717496032e+12,1.589717496032e+12,1.589717496056e+12,1.5897174961e+12,1.589717496133e+12,1.589717496133e+12,1.589717496182e+12,1.589717496182e+12,1.58971749621e+12,1.589717496211e+12,1.589717496274e+12,1.589717496275e+12,1.589717496275e+12,1.589717496289e+12,1.589717496289e+12,1.589717496378e+12,1.589717496378e+12,1.589717496381e+12,1.589717496382e+12,1.589717496428e+12,1.589717496429e+12,1.589717496429e+12,1.58971749643e+12,1.589717496459e+12,1.58971749646e+12,1.589717496461e+12,1.589717496461e+12,1.589717496509e+12,1.589717496511e+12,1.589717496571e+12,1.589717496594e+12,1.589717496596e+12,1.58971749662e+12,1.58971749665e+12,1.589717496651e+12,1.589717496724e+12,1.589717496725e+12,1.589717496726e+12,1.589717496744e+12,1.589717496774e+12,1.589717496775e+12,1.589717496805e+12,1.589717496846e+12,1.589717496915e+12,1.589717496916e+12,1.589717496916e+12,1.589717496939e+12,1.589717496961e+12,1.589717496962e+12,1.589717496962e+12,1.589717496996e+12,1.589717497041e+12,1.589717497061e+12,1.589717497062e+12,1.589717497065e+12,1.589717497113e+12,1.58971749712e+12,1.58971749712e+12,1.589717497144e+12,1.58971749719e+12,1.589717497192e+12,1.589717497193e+12,1.589717497215e+12,1.589717497216e+12,1.589717497217e+12,1.589717497277e+12,1.589717497278e+12,1.589717497325e+12,1.589717497326e+12,1.589717497356e+12,1.589717497429e+12,1.589717497431e+12,1.589717497484e+12,1.589717497485e+12,1.589717497487e+12,1.589717497539e+12,1.58971749757e+12,1.589717497611e+12,1.589717497611e+12,1.589717497631e+12,1.589717497655e+12,1.589717497655e+12,1.589717497656e+12,1.589717497656e+12,1.589717497683e+12,1.589717497726e+12,1.589717497726e+12,1.589717497773e+12,1.589717497773e+12,1.589717497774e+12,1.589717497804e+12,1.589717497805e+12,1.589717497883e+12,1.589717497884e+12,1.589717497888e+12,1.58971749789e+12,1.589717497892e+12,1.589717497937e+12,1.589717497938e+12,1.589717497966e+12,1.589717498015e+12,1.589717498015e+12]","[1.589717488309e+12,1.589717488353e+12,1.589717488386e+12,1.589717488422e+12,1.589717488423e+12,1.589717488472e+12,1.589717488501e+12,1.58971748858e+12,1.589717488582e+12,1.589717488583e+12,1.589717488627e+12,1.589717488628e+12,1.589717488662e+12,1.5897174887e+12,1.589717488737e+12,1.589717488766e+12,1.589717488767e+12,1.589717488808e+12,1.589717488838e+12,1.589717488875e+12,1.589717488875e+12,1.58971748891e+12,1.589717488939e+12,1.589717488974e+12,1.589717488974e+12,1.589717489019e+12,1.58971748902e+12,1.589717489102e+12,1.589717489103e+12,1.589717489104e+12,1.589717489104e+12,1.589717489105e+12,1.589717489147e+12,1.589717489147e+12,1.589717489178e+12,1.589717489218e+12,1.589717489218e+12,1.589717489219e+12,1.589717489219e+12,1.58971748925e+12,1.589717489301e+12,1.589717489301e+12,1.589717489302e+12,1.589717489303e+12,1.589717489351e+12,1.589717489352e+12,1.58971748938e+12,1.589717489447e+12,1.589717489448e+12,1.589717489477e+12,1.589717489479e+12,1.589717489542e+12,1.589717489554e+12,1.589717489555e+12,1.589717489555e+12,1.589717489582e+12,1.589717489591e+12,1.589717489628e+12,1.589717489653e+12,1.589717489677e+12,1.589717489678e+12,1.589717489739e+12,1.589717489763e+12,1.589717489763e+12,1.589717489786e+12,1.589717489833e+12,1.589717489834e+12,1.589717489925e+12,1.589717489925e+12,1.589717489926e+12,1.589717489927e+12,1.589717489927e+12,1.589717489928e+12,1.589717489939e+12,1.58971748998e+12,1.58971748998e+12,1.589717490042e+12,1.589717490042e+12,1.589717490042e+12,1.589717490045e+12,1.589717490098e+12,1.589717490151e+12,1.589717490152e+12,1.589717490152e+12,1.589717490153e+12,1.589717490202e+12,1.589717490238e+12,1.589717490295e+12,1.589717490299e+12,1.5897174903e+12,1.589717490315e+12,1.589717490385e+12,1.589717490386e+12,1.589717490386e+12,1.5897174904e+12,1.589717490431e+12,1.589717490464e+12,1.589717490517e+12,1.589717490517e+12,1.589717490518e+12,1.589717490568e+12,1.589717490569e+12,1.589717490569e+12,1.589717490569e+12,1.58971749057e+12,1.589717490593e+12,1.589717490634e+12,1.589717490682e+12,1.589717490683e+12,1.589717490707e+12,1.589717490709e+12,1.58971749071e+12,1.589717490733e+12,1.589717490733e+12,1.589717490796e+12,1.589717490805e+12,1.589717490805e+12,1.589717490841e+12,1.589717490887e+12,1.589717490915e+12,1.589717490916e+12,1.589717490916e+12,1.589717490917e+12,1.589717490969e+12,1.589717491012e+12,1.589717491012e+12,1.589717491013e+12,1.589717491013e+12,1.589717491042e+12,1.589717491113e+12,1.589717491114e+12,1.589717491115e+12,1.589717491148e+12,1.589717491184e+12,1.58971749122e+12,1.589717491221e+12,1.589717491221e+12,1.58971749126e+12,1.58971749126e+12,1.589717491318e+12,1.589717491319e+12,1.58971749132e+12,1.589717491321e+12,1.58971749136e+12,1.589717491401e+12,1.589717491403e+12,1.589717491448e+12,1.589717491473e+12,1.589717491474e+12,1.5897174915e+12,1.589717491503e+12,1.589717491503e+12,1.589717491557e+12,1.589717491558e+12,1.589717491628e+12,1.589717491629e+12,1.589717491629e+12,1.589717491651e+12,1.589717491675e+12,1.589717491684e+12,1.589717491685e+12,1.589717491716e+12,1.589717491717e+12,1.589717491767e+12,1.589717491808e+12,1.589717491809e+12,1.589717491838e+12,1.58971749184e+12,1.589717491841e+12,1.589717491841e+12,1.5897174919e+12,1.589717491901e+12,1.589717491973e+12,1.589717491975e+12,1.589717491998e+12,1.589717492027e+12,1.589717492028e+12,1.589717492079e+12,1.58971749208e+12,1.58971749208e+12,1.58971749208e+12,1.589717492105e+12,1.589717492105e+12,1.589717492153e+12,1.589717492182e+12,1.589717492183e+12,1.589717492183e+12,1.589717492236e+12,1.589717492237e+12,1.589717492289e+12,1.589717492289e+12,1.589717492289e+12,1.589717492334e+12,1.589717492364e+12,1.589717492402e+12,1.589717492403e+12,1.589717492436e+12,1.589717492472e+12,1.589717492517e+12,1.58971749258e+12,1.58971749258e+12,1.589717492581e+12,1.589717492582e+12,1.589717492582e+12,1.589717492624e+12,1.589717492625e+12,1.589717492691e+12,1.589717492692e+12,1.589717492693e+12,1.589717492729e+12,1.589717492731e+12,1.589717492769e+12,1.58971749277e+12,1.589717492771e+12,1.589717492773e+12,1.589717492774e+12,1.589717492796e+12,1.589717492797e+12,1.589717492836e+12,1.589717492917e+12,1.589717492918e+12,1.589717492977e+12,1.589717492978e+12,1.589717492997e+12,1.589717493027e+12,1.589717493032e+12,1.589717493034e+12,1.58971749307e+12,1.589717493071e+12,1.589717493101e+12,1.589717493128e+12,1.589717493129e+12,1.58971749313e+12,1.589717493181e+12,1.589717493254e+12,1.589717493255e+12,1.589717493255e+12,1.589717493256e+12,1.589717493276e+12,1.589717493307e+12,1.589717493308e+12,1.589717493364e+12,1.589717493365e+12,1.589717493387e+12,1.589717493432e+12,1.589717493437e+12,1.589717493463e+12,1.589717493465e+12,1.589717493467e+12,1.589717493469e+12,1.58971749347e+12,1.589717493497e+12,1.589717493498e+12,1.589717493499e+12,1.589717493566e+12,1.589717493567e+12,1.589717493568e+12,1.589717493611e+12,1.589717493615e+12,1.589717493639e+12,1.589717493673e+12,1.589717493713e+12,1.589717493714e+12,1.589717493752e+12,1.589717493784e+12,1.589717493784e+12,1.589717493822e+12,1.589717493855e+12,1.589717493901e+12,1.589717493902e+12,1.589717493956e+12,1.589717493983e+12,1.589717493984e+12,1.589717493986e+12,1.589717493986e+12,1.58971749404e+12,1.589717494059e+12,1.589717494059e+12,1.589717494107e+12,1.589717494134e+12,1.589717494162e+12,1.589717494162e+12,1.589717494163e+12,1.589717494197e+12,1.589717494225e+12,1.589717494255e+12,1.589717494286e+12,1.589717494286e+12,1.589717494286e+12,1.589717494339e+12,1.58971749437e+12,1.589717494371e+12,1.589717494372e+12,1.5897174944e+12,1.589717494503e+12,1.589717494504e+12,1.589717494504e+12,1.589717494504e+12,1.589717494507e+12,1.589717494508e+12,1.589717494563e+12,1.589717494564e+12,1.589717494565e+12,1.589717494616e+12,1.589717494666e+12,1.589717494667e+12,1.589717494668e+12,1.589717494669e+12,1.58971749467e+12,1.589717494671e+12,1.589717494725e+12,1.58971749475e+12,1.589717494751e+12,1.589717494798e+12,1.589717494799e+12,1.5897174948e+12,1.589717494826e+12,1.589717494827e+12,1.5897174949e+12,1.589717494901e+12,1.589717494901e+12,1.589717494934e+12,1.589717494982e+12,1.589717495034e+12,1.589717495035e+12,1.589717495036e+12,1.589717495081e+12,1.589717495082e+12,1.589717495083e+12,1.58971749511e+12,1.589717495146e+12,1.589717495147e+12,1.589717495208e+12,1.589717495209e+12,1.58971749521e+12,1.589717495231e+12,1.589717495261e+12,1.589717495262e+12,1.589717495314e+12,1.589717495339e+12,1.58971749534e+12,1.589717495341e+12,1.589717495342e+12,1.589717495412e+12,1.589717495413e+12,1.589717495414e+12,1.589717495467e+12,1.589717495489e+12,1.589717495513e+12,1.589717495513e+12,1.589717495516e+12,1.589717495517e+12,1.589717495563e+12,1.589717495605e+12,1.589717495605e+12,1.589717495606e+12,1.589717495619e+12,1.589717495657e+12,1.589717495657e+12,1.589717495688e+12,1.589717495724e+12,1.589717495774e+12,1.589717495838e+12,1.589717495839e+12,1.58971749589e+12,1.589717495891e+12,1.589717495891e+12,1.589717495982e+12,1.589717495983e+12,1.589717495984e+12,1.589717495984e+12,1.589717495985e+12,1.589717495985e+12,1.589717496032e+12,1.589717496032e+12,1.589717496056e+12,1.5897174961e+12,1.589717496133e+12,1.589717496133e+12,1.589717496182e+12,1.589717496182e+12,1.58971749621e+12,1.589717496211e+12,1.589717496274e+12,1.589717496275e+12,1.589717496275e+12,1.589717496289e+12,1.589717496289e+12,1.589717496378e+12,1.589717496378e+12,1.589717496381e+12,1.589717496382e+12,1.589717496428e+12,1.589717496429e+12,1.589717496429e+12,1.58971749643e+12,1.589717496459e+12,1.58971749646e+12,1.589717496461e+12,1.589717496461e+12,1.589717496509e+12,1.589717496511e+12,1.589717496571e+12,1.589717496594e+12,1.589717496596e+12,1.58971749662e+12,1.58971749665e+12,1.589717496651e+12,1.589717496724e+12,1.589717496725e+12,1.589717496726e+12,1.589717496744e+12,1.589717496774e+12,1.589717496775e+12,1.589717496805e+12,1.589717496846e+12,1.589717496915e+12,1.589717496916e+12,1.589717496916e+12,1.589717496939e+12,1.589717496961e+12,1.589717496962e+12,1.589717496962e+12,1.589717496996e+12,1.589717497041e+12,1.589717497061e+12,1.589717497062e+12,1.589717497065e+12,1.589717497113e+12,1.58971749712e+12,1.58971749712e+12,1.589717497144e+12,1.58971749719e+12,1.589717497192e+12,1.589717497193e+12,1.589717497215e+12,1.589717497216e+12,1.589717497217e+12,1.589717497277e+12,1.589717497278e+12,1.589717497325e+12,1.589717497326e+12,1.589717497356e+12,1.589717497429e+12,1.589717497431e+12,1.589717497484e+12,1.589717497485e+12,1.589717497487e+12,1.589717497539e+12,1.58971749757e+12,1.589717497611e+12,1.589717497611e+12,1.589717497631e+12,1.589717497655e+12,1.589717497655e+12,1.589717497656e+12,1.589717497656e+12,1.589717497683e+12,1.589717497726e+12,1.589717497726e+12,1.589717497773e+12,1.589717497773e+12,1.589717497774e+12,1.589717497804e+12,1.589717497805e+12,1.589717497883e+12,1.589717497884e+12,1.589717497888e+12,1.58971749789e+12,1.589717497892e+12,1.589717497937e+12,1.589717497938e+12,1.589717497966e+12,1.589717498015e+12,1.589717498015e+12]","{""language"":""zh_CN"",""city"":""Wuxi"",""province"":""Jiangsu"",""country"":""China"",""avatarUrl"":""https://wx.qlogo.cn/mmopen/vi_32/DYAIOgq83eqzPQRO1EMibzGmzuc0lauC7X5q4PtzDa6DXroqbdIRibgytPTliaxjbub7OhzJVIF7oMoQMkXPObvpw/132"",""nickName"":""高"",""gender"":1.0}"
