acc_x,acc_y,acc_z,gry_x,gry_y,gry_z,gender,weight,height,times,timeSs_g,userInfo
"[-3.0051675,-3.1540542,-1.8434951,-1.2052757,-0.5664451,-0.5067395,-0.2198586,-0.53317726,-1.5843247,-1.6936535,-3.1510127,-2.735067,-3.4109828,-2.843806,-1.8808419,-0.54702914,-0.32663423,-1.2028623,-0.69368064,-0.51558846,-0.4207436,-0.57192695,-0.58398217,-0.36419544,-0.7215319,-0.44288993,-1.5372059,-2.558989,-3.3896687,-2.8088708,-1.5931795,-1.6837432,-0.8308895,-0.9086216,-0.7122606,-0.38783386,-0.56448185,-0.36851075,-1.8138683,-0.6824701,-1.5528581,-2.6925588,-2.9542103,-2.9246945,-1.0133852,-1.1955016,-0.6237365,-0.66717494,-1.4701614,-1.0178949,-0.41968054,-0.21845749,-0.36946267,-0.4163881,-0.52443266,-0.30410382,-1.8032639,-2.8553174,-3.942958,-3.6871002,-2.897305,-2.4775505,-1.6918567,-0.98077804,-0.6561827,-0.5005845,-0.37394464,-0.04302093,-0.99887913,-2.1362362,-1.8627647,-3.7498899,-2.1335862,-4.404971,-2.6064363,-1.813194,-0.7247335,-0.1364944,-0.25723976,-0.19085236,-0.5772095,-0.3212674,-0.41552234,-0.6204267,-0.531757,-0.2959396,-0.6898988,-1.1394887,-3.017782,-4.0305796,-4.2482324,-2.7452607,-2.62889,-1.5723307,-1.1242108,-0.63218606,-0.7446207,-0.5132699,-0.4987649,-0.97036994,-1.2898676,-1.5121748,-2.9452405,-2.4456406,-3.9801304,-3.4983928,-2.3092363,-1.3295261,-0.82850486,-0.2316668,-0.084897436,-0.42439142,-0.38018006,-0.29938728,-0.41069752,-0.530488,-0.49780145,-0.29215485,-1.2844652,-2.1346874,-3.6590362,-4.56481,-3.9586563,-2.1265233,-1.1180423,-0.5153414,-0.26990983,-0.58377147,0.27494055,-0.3125228,-0.7240296,-0.86052114,-1.2781436,-2.445815,-2.0888672,-2.7351055,-1.9239881,-1.4633706,-1.4645112,-0.94716823,-0.81737757,-1.5057193,-0.8638817,-0.1263133]","[0.16234507,0.25383422,0.01616565,0.083330676,0.03726048,-0.05083369,-0.041577704,-0.06746477,-0.030556718,0.23543909,0.5413281,0.72609144,0.6901995,-0.3649108,-0.93496543,-0.7231437,-0.8514825,-1.2824043,-1.4510748,-1.2501832,-0.89131814,-0.7151989,-0.5297736,-0.68224406,-0.4921224,-0.6972643,-0.59487295,-0.18503924,-0.0085750725,0.35764012,-0.1340322,-0.056080826,-0.34840137,-0.5299546,-0.85001725,-0.88582975,-0.67756575,-0.60059893,-0.37933734,-0.49539575,0.14090261,1.2203467,0.7158338,0.21843164,-0.9852025,-0.07922031,-0.1701904,-0.7564394,-1.2631425,-1.6305443,-1.4259722,-1.0397453,-0.9257852,-0.5180286,-0.45103216,-0.60399485,-0.6890646,-0.38232815,0.0134104015,0.44977188,0.2782139,0.26912743,-0.014706145,-0.04971512,-0.29733878,-0.24807186,-0.13268474,-0.12639181,0.0596252,0.37797934,0.14206138,0.8157198,0.85675544,1.1650128,0.20587549,-0.7582197,-0.30241734,-0.28415245,-0.4562803,-0.9929253,-1.1990976,-1.3148007,-1.2503221,-0.78037375,-0.6739381,-0.8136762,-0.608132,-0.7491438,0.069757454,0.13026851,0.32019383,0.38128045,0.42827958,0.41230735,0.09037441,-0.14815989,-0.39562652,-0.36574784,-0.18812582,-0.0032848448,0.17052463,0.21659768,0.27106577,0.96925515,0.89989233,0.5651408,-0.4449978,-0.72820985,-0.47218925,-0.6929978,-1.2425773,-1.722154,-1.556549,-1.1085833,-0.7397202,-0.53370684,-0.57089645,-0.7629861,-0.8615726,-0.78991514,-0.5118813,0.2563491,0.81865704,0.35734227,0.37822545,0.12436441,-0.22949955,-0.7120614,-0.9489294,-0.80164385,-0.32338482,-0.04272405,0.08397519,0.28958732,0.51536244,-0.09599887,0.43133655,-0.4591638,-0.6587876,-0.1701425,-0.70259476,-1.2027607,-1.4314262,-1.3498682]","[0.26594025,-0.066433355,-0.25609338,0.75806844,0.06499683,0.36316878,0.18969835,0.5093894,0.48551726,-0.5362686,0.6083829,-0.14961365,-0.16639605,-1.1313303,-0.44758454,0.8160426,-1.1678973,0.29587448,0.44125137,-0.4212502,-0.7076887,-0.7410562,-0.15517013,-0.18963802,-0.23870096,-0.5875141,-0.17138654,-0.3732369,0.15898648,-1.7234452,0.5003556,0.3300158,0.4080802,0.52444607,0.37690288,-0.34127238,0.45098716,-0.024830746,0.7029826,-1.4818892,1.3884971,-1.0844307,-0.67070305,0.44140267,-0.6404825,-0.11570315,-1.2835459,-1.4015255,-0.22734669,1.1779549,0.1742979,-0.49291152,-0.47179565,-0.8400124,-0.6966897,-0.7600049,-0.6291933,-0.20838845,-0.9562327,-0.15462235,0.37005165,-0.058557384,-0.21323144,0.16796954,0.25900763,0.21416037,0.18243147,0.27453163,-0.16092005,0.24248283,-0.67205626,1.1371769,-1.4123042,-0.7752224,1.37997,-2.3916419,0.37767094,0.23804303,-0.8211547,-0.41107488,-0.29973203,-0.6231197,-0.52201736,-0.34111434,-0.43975168,-0.46325698,-1.1352193,-0.88535947,-1.0795447,-0.95939016,-0.04084029,-0.63038754,-0.24356022,-0.3657574,0.09434783,0.05955433,0.40514487,-0.035824917,0.4809281,-0.3227106,0.6226572,-1.1616341,1.2378396,-1.4217517,-0.59763205,-0.6251203,-1.2741979,0.24114303,0.046978068,-0.47429615,-1.2390702,-0.19534004,-0.26967523,-0.78989404,-0.7396781,-0.521302,-0.47368518,-0.22344032,-0.659842,-1.2280416,-0.92251664,-0.8491591,0.6514728,-0.3822027,0.59918153,0.11742984,-0.16992703,0.1988959,0.03472071,0.993021,-0.07443382,0.65150344,-0.8716589,0.84256935,-1.1543902,1.5871603,-1.3576272,-1.4524243,0.0045288717,-0.49677,-1.2524903,-0.5716731,0.0760839,0.0026642676]","[0.6116332,0.3379132,1.5868883,-0.31307715,0.1402023,-0.09475392,0.028745573,-0.5182057,-1.0193421,1.1709414,0.15016812,0.005323254,-0.63952357,0.6779557,-0.88069314,-5.0654693,-0.27248082,-1.8309027,-3.6124127,-1.7141402,0.58175313,2.6806338,2.3873312,1.707857,1.0902199,1.4656926,-0.17889625,-0.17563248,-1.7693624,4.2262974,1.6016537,0.94731236,-0.30194196,-1.1254407,-1.3468182,0.541436,0.1996133,1.139857,-1.4667224,4.3488193,-1.1523362,-0.12424999,0.11615166,-3.3956602,-3.8426216,-5.675828,-2.025734,2.1630912,2.3745902,-2.672169,-3.286071,-1.0867118,-0.13336061,0.98139864,2.546226,3.1008391,1.8672405,0.9713106,2.8583083,2.483935,-0.0010995574,0.097825706,0.7583281,0.78714347,-0.118333325,-0.69029516,-0.20086995,-0.2287254,0.034766957,-0.29974285,2.0473933,-4.2539606,0.62704444,2.0371308,-7.182571,-0.0019024089,-2.8848023,-4.8030763,-1.8970681,-1.3090668,-1.5593121,-0.48075095,0.19378391,0.19872318,0.41849506,0.7407003,2.422482,2.5393145,3.9103577,4.766442,1.6303121,1.1946081,0.44090506,0.96258396,0.7392342,0.92825335,-0.20853193,0.17544049,-1.5016987,0.27478462,-1.7678615,3.83009,-3.1567945,0.6479186,-0.92457074,-3.0081623,-1.0196388,-4.0069094,-5.784091,-4.3080134,-0.35529667,-0.45690975,-0.7699869,0.69582784,2.053275,2.5965438,2.688889,1.0291159,0.36501816,1.7703223,2.4523795,2.6670377,0.0006457718,1.9863942,-1.1105007,-0.9641548,0.52087605,1.104549,1.4256198,-1.1408519,0.0628144,-1.8369939,2.0638344,-1.339069,2.2561173,-4.681828,-3.550017,-0.7253239,-3.8019729,-3.110805,-0.019495327,0.36826447,-1.3460153,-1.6702801]","[0.3952996,0.21975441,-0.22809708,0.230558,-0.68587947,0.3286455,-0.10789625,0.1531352,-0.35793212,-0.9345191,-0.3251723,0.48457322,0.1982694,1.7314016,1.8531033,2.4447176,-0.77134824,0.20650735,0.2083923,-0.5538628,-0.40283945,-0.901864,-0.8296946,-0.8347037,-0.7641924,-0.6045821,1.3568538,0.70061004,2.9838672,0.22998203,0.37920767,-0.11458086,-0.090268426,-0.6330135,0.07152359,-0.53558916,0.9802642,-1.4654307,1.2281358,-1.8272027,1.4303148,0.22006856,0.7587993,0.98452276,1.0454872,1.7928895,0.37657225,-1.4117095,0.105243355,1.5843401,1.914696,0.7455872,-1.3157513,-1.6898452,-1.4676998,-0.53148764,-0.2631433,2.6745775,0.94877845,0.6603453,1.320202,0.50806534,0.111352004,0.94713783,-1.6331221,-0.032847095,1.2410513,-0.044174284,0.100146994,-0.12831661,-0.7822217,0.78513634,-0.5639333,-1.5599753,3.4356108,1.7253453,2.4331985,2.1322687,0.13849187,-0.65694195,-0.64879125,-0.6704159,-0.67853165,0.6624397,0.24357815,0.32506758,-0.53441983,1.1553382,1.6843998,0.41181043,1.7639868,0.53537977,0.7090226,0.2992018,1.0845127,-0.77232563,-0.09466666,-0.40261254,1.288437,-1.0906214,0.01675516,-1.8291225,0.517176,-0.0034382986,-0.1980076,2.1823423,0.21561797,2.5086665,2.1456902,1.1480601,-1.6598256,-1.0058333,-0.82177085,-1.0216808,-0.9602976,-0.59999186,-0.5178741,-0.59669316,1.8489668,1.6817818,1.2407371,-0.24637067,2.5015454,-1.1062071,1.2483119,-0.0670381,-0.55599207,0.33506832,-1.1331201,0.65437627,-0.26621506,0.93046993,-1.370642,1.0088875,-0.57983327,1.1022278,-1.9428656,-1.137309,0.5072974,1.6461596,-0.31764993,1.8158754,1.3610077,0.67945665]","[-5.064579,-4.6369033,-3.0021234,-2.22423,-0.81772166,0.0461116,1.5494858,3.4183843,4.0375223,5.7451525,4.9101,6.1053185,5.7230043,4.500052,1.9155338,3.0463152,3.3664608,1.4428986,0.06628761,-0.6477615,-1.1146545,-1.7866586,-2.365148,-2.9931,-3.7810988,-3.4071095,-4.801907,-5.642126,-5.999831,-5.6815877,-3.370824,-3.2217555,-1.5837467,-1.0651569,-0.49490556,0.57704073,1.3233435,3.396271,2.7099204,5.529901,3.8216078,5.8564,5.961975,4.833462,2.831046,2.7617042,3.755547,4.283544,2.123577,0.5434083,-0.21786945,-1.0972711,-2.3046374,-2.7899961,-3.8016763,-3.1994328,-5.0435305,-4.976684,-6.35792,-6.422515,-5.328944,-4.15158,-3.389342,-1.8708184,-1.3646381,-0.40137336,0.25853562,2.4475276,5.082172,4.664881,6.971456,4.0838437,7.911106,3.8118165,5.0371075,0.78328633,1.0699043,2.081113,1.7953852,2.0850751,0.63126814,0.35583773,-0.41121703,-1.9988383,-2.5906794,-2.7700295,-3.6761346,-3.6663957,-5.2322874,-5.2201576,-6.411711,-5.2035246,-5.0142436,-3.0597193,-1.7458354,-0.7301236,-0.43104395,-0.03359759,0.8732231,2.704283,3.7607832,5.822366,5.085366,8.083074,5.966216,5.319467,2.9813714,1.4527073,1.1008838,1.1151607,1.2737064,0.41280526,-0.5746671,-0.8585449,-1.5678118,-2.37562,-3.2472723,-3.2770302,-4.0394773,-5.3335514,-5.9512587,-6.9259725,-7.163023,-5.231764,-3.233973,-1.2881751,-0.0066497047,-0.3540575,1.1268718,1.8545171,1.9396892,3.281952,4.5187273,5.008222,6.8369784,5.823291,6.9279447,4.0316405,2.8648708,3.61531,3.2749708,1.0367604,-0.63385123,-0.7586073]",1,74,175,"[1.589187316099e+12,1.58918731614e+12,1.589187316182e+12,1.589187316225e+12,1.589187316265e+12,1.589187316306e+12,1.589187316348e+12,1.58918731639e+12,1.589187316431e+12,1.589187316475e+12,1.589187316514e+12,1.589187316557e+12,1.589187316598e+12,1.58918731664e+12,1.589187316682e+12,1.589187316724e+12,1.589187316767e+12,1.589187316811e+12,1.58918731685e+12,1.589187316891e+12,1.589187316933e+12,1.589187316975e+12,1.589187317017e+12,1.589187317067e+12,1.589187317109e+12,1.58918731715e+12,1.589187317192e+12,1.589187317234e+12,1.589187317276e+12,1.589187317317e+12,1.589187317358e+12,1.5891873174e+12,1.589187317443e+12,1.589187317485e+12,1.589187317525e+12,1.589187317567e+12,1.589187317608e+12,1.589187317652e+12,1.589187317695e+12,1.589187317737e+12,1.589187317779e+12,1.589187317822e+12,1.589187317863e+12,1.589187317905e+12,1.589187317946e+12,1.589187317987e+12,1.589187318029e+12,1.589187318072e+12,1.589187318113e+12,1.589187318155e+12,1.589187318196e+12,1.589187318236e+12,1.589187318277e+12,1.589187318319e+12,1.58918731836e+12,1.589187318401e+12,1.589187318442e+12,1.589187318483e+12,1.589187318524e+12,1.589187318565e+12,1.589187318607e+12,1.589187318649e+12,1.58918731869e+12,1.589187318731e+12,1.589187318773e+12,1.589187318815e+12,1.589187318856e+12,1.589187318898e+12,1.589187318939e+12,1.589187318983e+12,1.589187319026e+12,1.589187319067e+12,1.589187319108e+12,1.589187319149e+12,1.589187319189e+12,1.589187319229e+12,1.589187319271e+12,1.589187319312e+12,1.589187319353e+12,1.589187319394e+12,1.589187319435e+12,1.589187319476e+12,1.589187319517e+12,1.589187319561e+12,1.589187319602e+12,1.589187319643e+12,1.589187319683e+12,1.589187319724e+12,1.589187319765e+12,1.589187319806e+12,1.589187319847e+12,1.589187319888e+12,1.589187319929e+12,1.589187319971e+12,1.589187320013e+12,1.589187320054e+12,1.589187320095e+12,1.589187320137e+12,1.589187320179e+12,1.58918732022e+12,1.589187320262e+12,1.589187320303e+12,1.589187320345e+12,1.589187320386e+12,1.589187320427e+12,1.589187320468e+12,1.58918732051e+12,1.589187320552e+12,1.589187320593e+12,1.589187320636e+12,1.589187320678e+12,1.589187320719e+12,1.58918732074e+12,1.589187320783e+12,1.589187320824e+12,1.589187320866e+12,1.589187320907e+12,1.589187320948e+12,1.589187320989e+12,1.589187321031e+12,1.589187321072e+12,1.589187321113e+12,1.589187321155e+12,1.589187321197e+12,1.589187321242e+12,1.589187321282e+12,1.589187321323e+12,1.589187321365e+12,1.589187321406e+12,1.589187321448e+12,1.589187321489e+12,1.58918732153e+12,1.589187321573e+12,1.589187321615e+12,1.589187321658e+12,1.5891873217e+12,1.589187321742e+12,1.589187321783e+12,1.589187321825e+12,1.589187321866e+12,1.589187321908e+12,1.589187321949e+12,1.589187321991e+12,1.589187322033e+12]","[1.589187316099e+12,1.58918731614e+12,1.589187316182e+12,1.589187316225e+12,1.589187316265e+12,1.589187316306e+12,1.589187316348e+12,1.58918731639e+12,1.589187316431e+12,1.589187316475e+12,1.589187316514e+12,1.589187316557e+12,1.589187316598e+12,1.58918731664e+12,1.589187316682e+12,1.589187316724e+12,1.589187316767e+12,1.589187316811e+12,1.58918731685e+12,1.589187316891e+12,1.589187316933e+12,1.589187316975e+12,1.589187317017e+12,1.589187317067e+12,1.589187317109e+12,1.58918731715e+12,1.589187317192e+12,1.589187317234e+12,1.589187317276e+12,1.589187317317e+12,1.589187317358e+12,1.5891873174e+12,1.589187317443e+12,1.589187317485e+12,1.589187317525e+12,1.589187317567e+12,1.589187317608e+12,1.589187317652e+12,1.589187317695e+12,1.589187317737e+12,1.589187317779e+12,1.589187317822e+12,1.589187317863e+12,1.589187317905e+12,1.589187317946e+12,1.589187317987e+12,1.589187318029e+12,1.589187318072e+12,1.589187318113e+12,1.589187318155e+12,1.589187318196e+12,1.589187318236e+12,1.589187318277e+12,1.589187318319e+12,1.58918731836e+12,1.589187318401e+12,1.589187318442e+12,1.589187318483e+12,1.589187318524e+12,1.589187318565e+12,1.589187318607e+12,1.589187318649e+12,1.58918731869e+12,1.589187318731e+12,1.589187318773e+12,1.589187318815e+12,1.589187318856e+12,1.589187318898e+12,1.589187318939e+12,1.589187318983e+12,1.589187319026e+12,1.589187319067e+12,1.589187319108e+12,1.589187319149e+12,1.589187319189e+12,1.589187319229e+12,1.589187319271e+12,1.589187319312e+12,1.589187319353e+12,1.589187319394e+12,1.589187319435e+12,1.589187319476e+12,1.589187319517e+12,1.589187319561e+12,1.589187319602e+12,1.589187319643e+12,1.589187319683e+12,1.589187319724e+12,1.589187319765e+12,1.589187319806e+12,1.589187319847e+12,1.589187319888e+12,1.589187319929e+12,1.589187319971e+12,1.589187320013e+12,1.589187320054e+12,1.589187320095e+12,1.589187320137e+12,1.589187320179e+12,1.58918732022e+12,1.589187320262e+12,1.589187320303e+12,1.589187320345e+12,1.589187320386e+12,1.589187320427e+12,1.589187320468e+12,1.58918732051e+12,1.589187320552e+12,1.589187320593e+12,1.589187320636e+12,1.589187320678e+12,1.589187320719e+12,1.58918732074e+12,1.589187320783e+12,1.589187320824e+12,1.589187320866e+12,1.589187320907e+12,1.589187320948e+12,1.589187320989e+12,1.589187321031e+12,1.589187321072e+12,1.589187321113e+12,1.589187321155e+12,1.589187321197e+12,1.589187321242e+12,1.589187321282e+12,1.589187321323e+12,1.589187321365e+12,1.589187321406e+12,1.589187321448e+12,1.589187321489e+12,1.58918732153e+12,1.589187321573e+12,1.589187321615e+12,1.589187321658e+12,1.5891873217e+12,1.589187321742e+12,1.589187321783e+12,1.589187321825e+12,1.589187321866e+12,1.589187321908e+12,1.589187321949e+12,1.589187321991e+12,1.589187322033e+12]","{""nickName"":""Simplify"",""gender"":1.0,""language"":""zh_CN"",""city"":""Wuxi"",""province"":""Jiangsu"",""country"":""China"",""avatarUrl"":""https://wx.qlogo.cn/mmopen/vi_32/TkutvetqnTpaBg7Z3rYt4LoiaJFw9u5vSUEYpickKhs1N1RSxUuqqZoPAziaS0foakJh5ibdxxxQXWlUtdtuAxVfug/132""}"
"[-3.0605934,-4.1632514,-4.0791354,-2.9571137,-2.6316712,-0.75074697,-0.71506757,-0.39125568,-0.67808485,-0.1480833,-0.9023679,-1.5665176,-1.9448284,-3.5329254,-3.4291272,-3.1781554,-2.7320666,-1.9874794,-1.0936561,-1.7262186,-1.4623976,-0.7783598,-0.47781175,-0.48571172,-0.5288044,-0.75626796,-0.4642539,-0.95567054,-1.5524809,-4.54951,-4.3312583,-3.022737,-2.25968,-1.3339448,-0.8308215,-0.5253788,-0.7105665,-0.3673883,-0.5077652,-0.9531318,-1.6582155,-2.2305706,-4.4860396,-4.390973,-4.6643343,-3.401987,-1.1028842,-0.31693962,-0.27216133,-0.80540085,-1.3522165,-0.94417256,-0.39305514,-0.17583497,-0.31538627,-0.5102149,-0.4636956,-0.62621397,-3.2463825,-3.541553,-3.9613774,-2.4308648,-2.1851459,-1.3317211,-1.0774415,-0.26589045,-0.42380148,-0.56900597,-0.5114857,-1.3799136,-1.6857831,-2.2455018,-2.9294333,-3.470609,-3.8576362,-2.8303535,-2.0917487,-0.94783956,-0.7870689,-1.1294667,-0.845157,-0.41214076,-0.020947348,-0.12684289,-0.39830416,-0.65242475,-0.7309651,-2.2154536,-2.8406887,-4.4118075,-3.4583268,-2.235784,-1.974029,-0.92594415,-1.1757398,-0.61913383,-0.4573337,-0.459047,-0.6321219,-1.7454927,-1.3457721,-2.8760905,-3.474633,-3.6641133,-3.3094742,-2.0462246,-1.1037548,-0.4891785,-0.38303685,-0.5806476,-0.9796192,-0.9214756,-0.4930964,-0.20500016,-0.2933079,-0.29344293,-0.8367505,-2.4258924,-3.7086864,-4.334775,-3.4345512,-2.488451,-1.9391041,-0.95992357,-0.81267536,-0.76224864,-0.07831338,-0.5470396,-1.1275014,-1.1358677,-1.6076682,-2.3188045,-3.5908794,-4.0647902,-3.2573333,-1.8919251,-1.196236,-0.5808669,-0.6312313,-1.2659295,-1.2530515,-1.0227234]","[-0.47710213,0.15208831,0.30730632,0.57497996,0.73655796,0.4458875,-0.11899662,-0.25073996,-0.22379272,-0.21656895,-0.09434208,0.7249346,1.1085346,1.1512251,1.3274143,1.0923871,-0.07631375,-0.12851404,-0.89734775,-1.4342906,-1.8157396,-1.6189295,-1.1220322,-0.6923562,-0.41729975,-0.3519668,-0.3737895,-0.73363507,-0.8104086,-0.289979,0.08637801,0.4687454,0.50376874,0.11664742,-0.111305475,-0.3834726,-0.6269083,-0.5321151,-0.16784886,0.4569861,1.0710299,1.3365573,1.6711451,0.99341744,0.55907387,-1.0794336,-0.86153144,-0.55756366,-0.9863747,-1.3795658,-1.3484948,-1.0597225,-0.6860029,-0.44502944,-0.28120187,-0.20262894,-0.38820833,-0.53038085,-0.5001899,-0.41958863,0.16266973,0.08133103,0.23325272,0.024517583,0.04834851,-0.21494663,-0.48451748,-0.47807422,-0.26385826,-0.26426816,0.12456745,0.44698215,1.0867904,1.067177,1.1739298,-0.06339559,-1.0073392,-0.63788617,-1.1808758,-1.627722,-1.6085348,-1.2376299,-0.938323,-0.6799705,-0.6106057,-0.70493245,-0.67048085,-0.8350956,-0.070557125,0.2068437,0.31538722,0.31742135,0.31145403,-0.16654354,-0.27589536,-0.61002725,-0.51354957,-0.3735357,-0.08051126,0.15991256,0.71109897,0.7397202,1.1670728,1.0450269,0.26117197,-0.9371241,-0.49473786,-0.68093395,-1.2184639,-1.5507301,-1.6225542,-1.3378023,-0.82685864,-0.5409172,-0.31054136,-0.54347134,-0.61783236,-0.6849792,-0.35265154,0.21677773,0.73420876,0.5972068,0.7664376,0.1697968,-0.47557944,-0.64674383,-0.5326907,-0.5308338,-0.013532984,0.36010325,0.97274125,1.1677096,1.1227801,0.8477294,0.86464006,-0.3879009,-0.60247505,-0.73038757,-1.004404,-1.3591347,-1.441182,-1.083428]","[-0.9083265,-0.78966326,0.39445716,-0.03909444,-0.5360014,-0.23562297,0.518087,0.2355454,0.3865065,0.15874036,0.63619304,0.06801831,-0.76332605,0.28519633,-0.8920442,-0.80264556,-0.95077866,-0.6690271,-0.76654583,-0.45665756,-0.12879464,-0.21741936,-0.87141764,-0.88201916,-0.46922526,-0.19405675,-0.078784555,-0.35089517,-0.9417842,-0.6259966,-0.10498574,-0.10400412,-0.061389245,-0.67906165,1.0329189,0.59628737,0.18077372,-0.07062512,0.71108556,0.67510074,-0.5172893,-0.7610631,-0.4119473,0.45388126,-1.2911718,-0.036697365,0.3277605,0.008755117,-0.8904122,-0.84054005,0.07227521,0.395751,-0.030165026,-0.48105258,-0.7269141,-0.4788978,-0.59957707,-0.34168896,-0.6456243,-0.26282206,0.27606773,-0.022340775,0.18761347,0.050720684,0.4989727,-0.07534074,0.0037770928,0.5445267,0.029056033,0.106682755,-0.00018100164,0.10853586,-1.0934281,0.4437643,-0.6160597,-0.8890456,0.22763975,-0.6464632,-0.8535606,-0.19995607,0.42809764,0.050757073,-0.3956083,-0.75685793,-0.30809546,-0.7542416,-0.97048587,-0.45347714,-0.2643036,-0.5345122,0.4036902,0.11398985,-0.15521993,0.19382979,0.18526044,0.20865181,0.19013695,0.5197553,0.13546681,0.22959435,-0.41305727,0.03337996,-0.38395047,-0.43729424,-0.84394944,-0.8053118,-0.11524346,-0.41684395,-0.5475865,-0.31052795,-0.087931365,0.09812875,-0.3682378,-0.57829934,-0.5615791,-0.37600172,-0.7829614,-0.428089,-0.47712034,-0.2333868,0.4199842,-0.0016299725,0.14293192,0.10512652,0.4626306,0.23504932,0.27465898,0.3751331,0.07460429,0.2853132,-0.01652957,-1.247515,-0.82057536,0.31106523,-2.7448182,-1.7594932,0.460155,0.52367985,-0.30284446,-0.6164351,-0.29003072,-0.028140489]","[3.49483,0.6675186,-0.643276,0.6274459,1.8377968,0.7354992,0.37330848,-0.3024132,0.4205022,-0.54459506,-0.15575318,2.4618044,-0.84208643,-1.5964178,-2.3097687,-2.6088135,-3.097017,-2.120418,-1.9008381,-2.9051006,-3.205367,-0.04796165,2.606021,3.3048158,3.1146274,1.7630967,0.9427047,2.043257,3.2599084,1.2288165,0.83611745,0.6520725,3.3714175,0.041381758,-1.4949094,-0.74471456,0.47272244,-0.34627333,-1.3916209,0.057979837,2.9448416,2.6239455,-3.1910553,-1.6907353,-2.782526,-4.4421597,-4.932039,-2.1855536,1.7260957,0.4958306,-1.5316137,-1.5473217,0.23706807,2.072788,2.6463554,2.5985684,1.3823007,0.6913249,1.1843106,0.4749041,1.3336409,0.2395639,-0.020542525,-1.8730873,-1.5005468,-0.44647267,-0.4346219,0.41221187,0.7901629,0.60323817,-0.31127948,3.210411,-0.6793519,-1.2552059,0.42811182,-3.317679,-3.2627883,-0.74138093,-0.7060206,-2.136283,-1.969604,-0.37592646,1.8551104,1.861062,2.5211282,2.539803,0.8206887,0.7594102,1.2056909,-0.11082841,-0.4728795,0.7603178,0.52368605,-0.0718203,-0.6108303,0.4113741,0.11426671,0.52307516,-0.13475688,2.025699,0.5915619,-0.11856022,-1.9713669,-2.507148,-2.0928593,-3.399535,-2.5466623,-0.7946659,0.18912388,-0.12348204,-1.3200275,-0.47980845,1.0439163,2.245087,1.9005065,1.7930466,0.46807986,0.9347809,1.8549708,0.37629297,0.5028817,-0.1017527,0.56250215,-1.0296744,-0.5275781,-0.3448945,-0.2120575,0.105086274,-0.6809053,-1.1692833,2.0614433,0.124337256,-6.4382925,-1.8822329,1.2895714,-1.9504229,-4.458112,-3.083089,-1.1888136,-1.4112732,-2.2004414]","[1.1403458,2.3335924,1.850433,0.81821036,0.75307465,-0.79571307,-1.2689416,0.35123006,-1.1801044,0.22307053,-0.91512847,-1.6164018,1.0627834,0.33091444,-0.7631452,1.274963,2.75111,0.3688579,0.81293947,1.4841232,1.8820235,0.1357168,-0.76234233,-0.57297415,-1.6345358,-0.59217274,-0.46575856,0.9282359,0.18362609,2.6472106,0.3424336,1.6810837,-1.2109967,-0.7153232,-0.42554617,-0.37917277,0.5326221,0.31934288,0.64715064,-0.3322583,-0.98010707,-0.98923516,1.0844604,1.0043671,4.383412,4.1577406,0.87240285,-0.1023112,-1.437872,0.01420698,1.0346487,0.6026971,-0.8038463,-1.9357796,-1.2150983,-0.42544144,-0.036128316,1.0994701,3.3544006,2.3130324,1.4231589,0.08892453,0.78414154,1.1478856,-1.0083989,0.18217747,0.013753194,-0.32201326,-1.0606366,-0.37784633,-0.7021983,-0.37601373,-0.68881166,-0.38285542,0.73181653,2.3109555,2.4397783,-0.121038586,0.5117654,0.4460538,0.2505769,-0.04564036,-1.2080646,-0.9374338,-1.0766587,0.0665145,0.5216789,2.1136112,0.24795893,1.9239113,0.9298067,1.097847,-0.401321,-0.39791763,0.22303562,0.44457027,-0.8034274,0.27981117,-0.11393509,0.097686075,-1.3888806,2.2211409,1.3935581,0.48843038,0.8895943,2.1941755,1.6177282,-0.06825983,-0.9189682,-0.8981115,-0.05921902,-0.23633504,-0.5358859,-1.0215762,-0.66620964,-0.4342903,0.4294208,1.7733941,1.3918827,1.5178779,0.07382743,0.70261717,0.27555257,-0.54023176,0.9626014,0.050649453,-0.10711086,-0.14014994,1.1095058,-0.33197907,-1.1195939,-0.8534311,1.3397322,0.12149237,1.9097567,4.188511,1.9569504,0.25691247,-0.20544271,-0.11358603,0.7001388]","[-6.2753835,-6.3327003,-5.2466865,-5.074283,-2.218296,-1.4169456,0.07878416,0.7114311,2.6012912,3.977518,4.8416133,7.1564956,6.7775674,6.524739,6.628551,4.3505473,3.7233632,4.1566763,2.0410404,0.06122615,-0.5071927,-1.6539088,-2.2982845,-2.819492,-4.0536494,-4.0369816,-4.9639435,-5.5501122,-7.5364714,-7.4269695,-6.2245946,-4.5407705,-3.2460854,-1.6763189,-0.39741147,0.011466813,1.1580957,2.0904856,3.7246547,6.4425163,8.883848,7.3209753,7.8083587,6.8324404,2.3351808,1.3784261,1.9722744,1.8053336,1.5840085,-0.59986967,-2.0786347,-2.5184927,-2.4538457,-2.7717748,-3.355954,-4.035498,-3.7902267,-5.768645,-5.5313325,-6.7591715,-5.259445,-4.4642034,-2.887944,-2.2565362,-0.5499358,0.43608797,0.9751329,2.9136353,3.564835,4.8686132,5.918848,7.1864457,7.377437,7.3804736,5.8093286,2.4074898,2.4997652,2.1130004,0.33910003,-1.1137295,-1.692149,-1.558771,-1.8292098,-2.224457,-3.7581303,-3.877092,-5.8318257,-5.5766234,-6.9898343,-6.4328995,-4.5477,-3.509665,-2.253831,-1.1345339,-0.13596115,0.63285637,1.8069394,3.8867784,3.521097,6.335179,6.429531,7.868014,7.2727346,5.182947,2.0649862,1.7534974,2.0316854,1.910734,1.2703204,-0.42462116,-1.9187102,-2.520168,-2.4678433,-2.7425928,-3.1078553,-3.8754513,-5.135247,-6.122266,-7.428488,-6.8604355,-5.602507,-3.98984,-1.9231957,-0.61901593,-0.4512025,1.136349,2.1499665,2.4766746,4.32983,5.7456937,7.9909377,7.587871,6.7053804,5.6542907,3.62175,2.9832737,2.7811646,2.6840546,0.7686081,-0.70921457,-1.731035]",1,74,175,"[1.589269162499e+12,1.589269162538e+12,1.58926916258e+12,1.589269162622e+12,1.589269162665e+12,1.589269162706e+12,1.589269162747e+12,1.589269162789e+12,1.58926916283e+12,1.589269162872e+12,1.589269162915e+12,1.589269162958e+12,1.589269163e+12,1.589269163043e+12,1.589269163084e+12,1.589269163126e+12,1.589269163168e+12,1.589269163217e+12,1.58926916326e+12,1.589269163301e+12,1.589269163342e+12,1.589269163384e+12,1.589269163427e+12,1.589269163468e+12,1.589269163509e+12,1.58926916355e+12,1.589269163591e+12,1.589269163634e+12,1.589269163677e+12,1.589269163718e+12,1.58926916376e+12,1.589269163801e+12,1.589269163843e+12,1.589269163886e+12,1.589269163927e+12,1.589269163969e+12,1.589269164012e+12,1.589269164053e+12,1.589269164096e+12,1.589269164138e+12,1.58926916418e+12,1.589269164222e+12,1.589269164265e+12,1.589269164308e+12,1.589269164349e+12,1.58926916439e+12,1.589269164432e+12,1.589269164474e+12,1.589269164516e+12,1.589269164558e+12,1.589269164602e+12,1.589269164642e+12,1.589269164683e+12,1.589269164725e+12,1.589269164768e+12,1.58926916481e+12,1.589269164853e+12,1.589269164896e+12,1.58926916494e+12,1.589269164982e+12,1.589269165025e+12,1.589269165067e+12,1.58926916511e+12,1.589269165152e+12,1.589269165194e+12,1.589269165235e+12,1.589269165277e+12,1.58926916532e+12,1.589269165363e+12,1.589269165405e+12,1.589269165448e+12,1.589269165488e+12,1.589269165529e+12,1.58926916557e+12,1.589269165611e+12,1.589269165654e+12,1.589269165696e+12,1.589269165741e+12,1.589269165782e+12,1.589269165824e+12,1.589269165866e+12,1.589269165907e+12,1.589269165948e+12,1.589269165991e+12,1.589269166034e+12,1.589269166087e+12,1.589269166127e+12,1.589269166168e+12,1.589269166209e+12,1.58926916625e+12,1.589269166291e+12,1.589269166334e+12,1.589269166376e+12,1.589269166418e+12,1.58926916646e+12,1.589269166502e+12,1.589269166545e+12,1.589269166585e+12,1.589269166628e+12,1.589269166669e+12,1.58926916671e+12,1.589269166753e+12,1.589269166795e+12,1.589269166838e+12,1.589269166879e+12,1.589269166921e+12,1.589269166963e+12,1.589269167006e+12,1.589269167048e+12,1.58926916709e+12,1.589269167131e+12,1.589269167175e+12,1.589269167215e+12,1.589269167256e+12,1.589269167299e+12,1.589269167341e+12,1.589269167383e+12,1.589269167425e+12,1.589269167467e+12,1.589269167509e+12,1.589269167552e+12,1.589269167595e+12,1.589269167636e+12,1.589269167678e+12,1.58926916772e+12,1.589269167761e+12,1.589269167802e+12,1.589269167843e+12,1.589269167884e+12,1.589269167926e+12,1.589269167975e+12,1.589269168017e+12,1.589269168059e+12,1.5892691681e+12,1.589269168143e+12,1.589269168183e+12,1.589269168223e+12,1.589269168264e+12,1.589269168306e+12,1.589269168349e+12,1.589269168391e+12,1.589269168432e+12]","[1.589269162538e+12,1.58926916258e+12,1.589269162622e+12,1.589269162665e+12,1.589269162706e+12,1.589269162747e+12,1.589269162789e+12,1.58926916283e+12,1.589269162872e+12,1.589269162915e+12,1.589269162958e+12,1.589269163e+12,1.589269163043e+12,1.589269163084e+12,1.589269163126e+12,1.589269163168e+12,1.589269163217e+12,1.58926916326e+12,1.589269163301e+12,1.589269163342e+12,1.589269163384e+12,1.589269163427e+12,1.589269163468e+12,1.589269163509e+12,1.58926916355e+12,1.589269163591e+12,1.589269163634e+12,1.589269163677e+12,1.589269163718e+12,1.58926916376e+12,1.589269163801e+12,1.589269163843e+12,1.589269163886e+12,1.589269163927e+12,1.589269163969e+12,1.589269164012e+12,1.589269164053e+12,1.589269164096e+12,1.589269164138e+12,1.58926916418e+12,1.589269164222e+12,1.589269164265e+12,1.589269164308e+12,1.589269164349e+12,1.58926916439e+12,1.589269164432e+12,1.589269164474e+12,1.589269164516e+12,1.589269164558e+12,1.589269164602e+12,1.589269164642e+12,1.589269164683e+12,1.589269164725e+12,1.589269164768e+12,1.58926916481e+12,1.589269164853e+12,1.589269164896e+12,1.58926916494e+12,1.589269164982e+12,1.589269165025e+12,1.589269165067e+12,1.58926916511e+12,1.589269165152e+12,1.589269165194e+12,1.589269165235e+12,1.589269165277e+12,1.58926916532e+12,1.589269165363e+12,1.589269165405e+12,1.589269165448e+12,1.589269165488e+12,1.589269165529e+12,1.58926916557e+12,1.589269165611e+12,1.589269165654e+12,1.589269165696e+12,1.589269165741e+12,1.589269165782e+12,1.589269165824e+12,1.589269165866e+12,1.589269165907e+12,1.589269165948e+12,1.589269165991e+12,1.589269166034e+12,1.589269166087e+12,1.589269166127e+12,1.589269166168e+12,1.589269166209e+12,1.58926916625e+12,1.589269166291e+12,1.589269166334e+12,1.589269166376e+12,1.589269166418e+12,1.58926916646e+12,1.589269166502e+12,1.589269166545e+12,1.589269166585e+12,1.589269166628e+12,1.589269166669e+12,1.58926916671e+12,1.589269166753e+12,1.589269166795e+12,1.589269166838e+12,1.589269166879e+12,1.589269166921e+12,1.589269166963e+12,1.589269167006e+12,1.589269167048e+12,1.58926916709e+12,1.589269167131e+12,1.589269167175e+12,1.589269167215e+12,1.589269167256e+12,1.589269167299e+12,1.589269167341e+12,1.589269167383e+12,1.589269167425e+12,1.589269167467e+12,1.589269167509e+12,1.589269167552e+12,1.589269167595e+12,1.589269167636e+12,1.589269167678e+12,1.58926916772e+12,1.589269167761e+12,1.589269167802e+12,1.589269167843e+12,1.589269167884e+12,1.589269167926e+12,1.589269167975e+12,1.589269168017e+12,1.589269168059e+12,1.5892691681e+12,1.589269168143e+12,1.589269168183e+12,1.589269168223e+12,1.589269168264e+12,1.589269168306e+12,1.589269168349e+12,1.589269168391e+12,1.589269168432e+12]","{""nickName"":""Simplify"",""gender"":1.0,""language"":""zh_CN"",""city"":""Wuxi"",""province"":""Jiangsu"",""country"":""China"",""avatarUrl"":""https://wx.qlogo.cn/mmopen/vi_32/TkutvetqnTpaBg7Z3rYt4LoiaJFw9u5vSUEYpickKhs1N1RSxUuqqZoPAziaS0foakJh5ibdxxxQXWlUtdtuAxVfug/132""}"
"[-3.9656978,-2.884381,-2.5791385,-0.8495528,-0.81976604,-1.119839,-0.6174608,-0.4902118,-0.41976005,-0.60567844,-0.80949867,-0.5129031,-0.22878417,-1.4835259,-3.279451,-3.4291413,-5.64518,-3.7731824,-2.88714,-0.9925777,-1.3496441,-0.35991365,-0.89129716,-0.19263843,-2.0135791,-1.1609867,-2.8749201,-3.6503735,-2.8801825,-2.3178544,-1.4641426,-1.0698049,-0.44302693,-0.93950194,-0.9974264,-0.9831608,-0.53673023,-0.5502776,-0.457462,-0.57821214,-0.58345354,-2.059271,-2.6317906,-4.0704174,-3.4424558,-2.9068317,-1.8343626,-1.4009308,-0.43025914,-0.5487041,-0.47036391,-1.3249934,-2.1855693,-4.7915215,-3.232203,-2.7651095,-2.2453837,-0.8936089,-2.0067585,-0.61857074,-0.6416499,-1.0588462,-0.8188199,-0.54541254,-0.30950132,-0.35551214,-0.5052187,-0.62660474,-1.9964539,-3.0421379,-3.906659,-4.1312957,-2.666114,-1.5475824,-1.175011,-0.73534936,-0.651289,-0.94078624,-0.54326355,-1.3543961,-1.477665,-2.235418,-2.4278996,-3.2344174,-3.2498906,-3.503265,-1.6365459,-1.5133797,-0.37478644,-0.36599204,-0.30156407,-0.7652951,-0.7281543,-0.46613097,-0.6267196,-0.6298062,-0.43914828,-1.6610264,-3.1763234,-3.7860172,-4.2389674,-2.9658384,-1.7158381,-1.0084205,-1.6679704,-0.27754542,0.09473186,-0.7256739,-2.052093,-2.3028448,-3.2967982,-4.0489273,-3.8589072,-4.089511,-2.3029654,-0.9269304,-0.1812564,-0.88546485,-1.0722221,-0.98787344,-0.82611454,-0.4705449,-0.46009946,-0.350921,-0.56860757,-1.3992394,-3.1410632,-4.691289,-3.7374148,-2.3269181,-1.2460709,-0.9891645,-0.7680541,-0.613881,-0.40298343,-0.37405092,-0.7340459,-0.91549385,-1.0530015,-2.3474908,-2.7035153,-4.254056,-3.35024,-2.920427,-1.3059298]","[1.2708385,-0.012151052,-0.9726617,-0.12644354,-0.74850404,-1.0457537,-1.2794633,-1.4048457,-1.2143458,-0.898019,-0.5693632,-0.5148262,-0.7000464,-0.52591896,-0.56892645,-0.49309254,1.0860204,1.4318541,1.4863482,0.9273653,0.32297686,0.20013133,0.2231942,0.1185896,0.16458604,0.47302914,0.89112866,1.6808445,0.79158723,-0.85431814,-0.31257644,-0.2708752,-0.791004,-1.0251244,-1.3395481,-1.3830346,-0.9073556,-0.70277387,-0.4285056,-0.3250579,-0.422273,-0.53207785,-0.661631,0.70008856,0.819586,0.5124301,0.2863178,0.40095696,0.37708294,0.3389883,0.26004192,0.20827928,0.4723166,0.63949126,0.12808499,0.93297064,0.7488814,-0.5648889,-0.095307425,-0.4296711,-0.7575446,-1.2301944,-1.4756539,-1.1372085,-1.0073584,-0.850047,-0.7305763,-0.88120604,-0.9431287,-0.45069987,0.32885033,0.90854406,0.6859493,0.6421182,0.40792027,0.05967021,-0.39855224,-0.33996037,-0.24529362,-0.2562112,-0.14197807,0.291111,0.5343791,0.72577155,0.90312546,0.7691574,-0.8699188,-0.701867,-0.84763163,-0.93712795,-1.3113177,-1.2674885,-1.0880793,-0.84213364,-0.50856483,-0.44940028,-0.826059,-0.9322437,-0.8862176,-0.5671758,0.08677162,0.84079283,0.5172366,0.3393484,0.031451188,-0.026917532,0.20161764,0.14828058,0.11129208,0.559048,0.74811715,0.78447264,1.1082329,0.3011446,-0.47388822,-0.69966424,-0.6750299,-1.4991686,-1.8754289,-1.8955326,-1.2175348,-0.6421345,-0.33425355,-0.19740385,-0.47406727,-0.5677524,-1.1385224,0.40543318,1.1196656,1.2737546,1.0527171,0.26925576,-0.16875196,-0.56534475,-0.9832201,-0.6988914,-0.26226085,0.20353779,0.5488468,0.8184339,0.96310693,1.1765615,1.2260497,0.9255457,-0.8976638]","[0.1631773,-1.0389313,-0.6017395,-0.5203558,-1.4439287,-0.5581688,-0.95029986,-0.5786096,0.3073226,-0.34934944,-0.45309982,0.024843195,-0.31131518,-0.91145724,-1.0735409,-0.9590272,0.30511326,0.8217801,0.84627277,-0.106205836,1.0235461,0.4289078,0.3455647,-0.36088187,1.0377926,-0.44382754,0.88228434,-0.04134499,-0.44937629,0.52008283,-0.5376055,-1.95963,-0.12117629,-0.7426785,-0.69226235,-0.09791328,-0.08636173,-0.22143972,-0.20127288,-0.6699963,-0.5243302,-0.27261817,-0.54570466,-0.21434426,0.5334846,-0.43839365,0.27233854,-0.026543077,0.78757745,0.020029891,0.0016596606,0.24425645,0.5928944,0.33390686,1.2765453,0.28476924,-1.4283979,-0.7074579,-0.6782572,-0.24046692,-0.87164366,-0.8433164,-0.07212964,-0.15700026,-0.4672936,-0.63398075,-0.5458607,-0.8704542,-0.7452997,-0.81175023,-1.5096438,-0.16226558,-0.02453195,-0.19478747,0.092375,0.65140295,-0.11682651,0.29278404,-0.117359936,-0.38154382,0.23215425,-0.5105692,-0.34081176,0.3774028,0.02314044,-1.604706,-1.6050861,0.61938095,0.3987955,-0.88449085,-1.1221633,-1.2340721,-0.8453601,-0.85339785,-0.51723087,-0.08939279,-0.68403685,-0.85357314,-1.1928613,-1.0085133,-0.24417984,-0.022539971,0.05016523,-0.11995141,0.30801693,0.4360445,0.57995325,-1.150773,1.3204281,-0.63558394,0.040330805,-0.7435816,-1.3969563,-0.2937695,-1.6661183,-0.02755439,0.14896148,-0.9917722,-0.7993253,-0.46318227,0.0046706083,-0.4770102,-0.6168029,-0.589869,-0.6276419,-1.126538,-0.8416088,-1.0395385,-0.28245932,-0.18574598,-0.3052789,0.60993916,0.4419486,0.56954896,0.04668597,0.40745768,0.15842816,-0.111779526,-0.2894791,0.016501796,-0.2769268,-0.28271693,-0.5601618,-1.1766803,-1.9257606]","[-2.552579,-4.2572594,-4.557875,-1.0780375,-1.2975302,1.2815429,3.2700837,1.1238873,1.2490449,1.976533,0.74148566,-0.8572359,-0.25727898,-0.7511199,1.0203893,2.64564,1.4965152,-0.6039712,2.3472757,0.25979227,-0.63936645,-0.82257366,2.0073905,-0.82306236,1.8464187,-1.1349702,-1.3952336,-1.0611427,-4.963821,-5.451693,1.1684805,-0.49961796,0.44462264,1.6731774,0.89936817,0.03754203,0.17493436,0.037768926,1.3619153,1.5250512,-0.99152154,-1.4107671,2.171364,0.8951619,2.23547,1.3215284,1.2695351,-1.4811736,-0.39798743,1.6313418,1.8625281,0.13775884,5.1717772,-1.588075,-4.9372396,-1.3101314,-1.549835,-2.0154538,-3.7713249,-1.7927499,-0.07187266,-1.4297388,-2.0104446,-0.5935516,1.3249842,2.4534268,2.8276951,1.1035542,0.55349624,4.671845,3.2503614,0.8519825,1.3735392,1.7042441,-0.6282313,-0.17346828,-1.7604264,-1.4064735,0.43991023,-0.44732788,0.31860986,0.14985397,-0.57316613,-4.852469,-2.879706,0.99728113,-3.2352645,-5.834601,-3.556405,-1.5148062,0.12810716,0.45575783,1.6582897,2.2637968,1.5646353,1.9105595,1.1986398,1.7578782,2.6897619,2.6491828,1.6641539,1.2176988,2.1012368,0.7114137,-0.98267275,-2.740865,2.9175622,-1.6649743,0.28677505,-0.8387354,-2.0618796,-0.57663935,-3.8846316,-0.53803265,-2.323452,-4.1564317,-1.0369002,0.42704716,0.6248453,-1.0406002,-0.34316665,1.317043,2.1761289,2.1653078,2.8460212,1.3757732,3.65547,2.0976937,1.4076953,2.5167997,0.44675192,-0.3088709,-1.3030105,-0.2776819,-0.7790975,-0.71708596,-0.584982,0.49633673,0.29345965,-0.05099852,-1.6409585,-3.6796079,-2.681489,1.5222762]","[-0.34068826,1.6666323,3.0234513,-2.192762,1.0343344,0.6973463,-0.798907,-0.5362175,-0.9272411,-1.1678522,-0.31979668,-1.0374062,-1.8934728,2.6890986,3.6651042,3.4394157,2.391293,2.3889368,0.27914795,-0.09615019,-0.6814638,0.6938382,-1.5991056,-0.014678219,-2.066627,0.020664698,-0.32683036,-1.4121808,0.14385004,1.9718381,-0.76588535,-0.6821794,-1.0134429,-0.88992596,0.41076323,0.29942867,0.16612044,0.121474914,0.08297295,-0.46258205,0.19254473,3.9005492,2.2077541,3.774257,0.46240753,1.0818074,-0.699528,0.536043,0.4110774,-1.2413654,-1.296832,-0.8228704,-0.33557445,-0.046355944,1.3637304,-1.6867734,0.5888217,2.2268655,2.0593488,-0.061679937,0.25900686,1.0613697,1.1812912,0.2898119,-0.369556,-1.5611272,-1.7139482,-0.3901509,3.9173217,1.5229219,2.8460386,2.3212006,1.1016169,-0.36173695,0.27982864,-0.6795265,0.5359208,0.5646838,-1.1963359,-0.03679154,-1.8469249,-0.60454714,-1.0331651,-0.38364083,-3.3568616,0.44827035,2.846091,1.5466235,0.29639181,-1.5891223,-0.2358987,0.6900334,0.5453805,0.3146654,0.28105035,1.0475291,0.98054343,3.3282382,2.8025274,3.5352516,1.3856692,0.83269656,-1.0874797,-0.24680701,-0.02412045,1.0336363,-2.3700001,0.80798274,-2.4637241,1.0654013,-1.2510171,-1.8697886,0.575086,1.240964,2.3708203,1.244699,-0.8975879,-0.0078016217,0.024661502,0.664028,0.6152809,-0.29798007,0.017994344,-0.7306821,0.4265061,1.0766238,1.623767,1.119908,1.694959,-0.2574186,0.016091935,-1.0011733,0.202528,-0.6456497,0.3800978,-0.14716616,0.30832985,-0.21151645,-0.6940651,-2.025315,1.1361395,-1.1836648,-0.09562659,-0.16927949]","[5.550758,1.3304121,2.7830846,2.203356,1.8003072,1.3466437,0.70041806,0.48956487,-0.52258646,-2.167891,-2.5534866,-2.9565527,-4.2588477,-6.539225,-6.728384,-9.010122,-6.862722,-5.741819,-2.3737526,-2.0097466,0.29064968,1.143051,4.124475,3.3820815,6.660578,6.04699,6.227614,7.16524,3.5668595,2.8164728,2.0027828,3.4399042,2.5409377,1.321476,-0.25939083,-1.7227447,-2.5260675,-2.9608114,-3.4947426,-2.9973412,-4.609013,-5.2429867,-6.1291776,-5.0196543,-4.9665265,-3.3258646,-2.7866974,-0.4860742,1.2420635,3.6390812,4.7209935,5.3788953,4.5297055,3.6049426,5.777319,5.415931,5.3414927,2.375463,3.3538072,3.32658,1.3736265,0.13870132,-0.9677676,-1.317741,-1.7485232,-2.7482302,-2.8429494,-5.1246533,-6.0102158,-7.258859,-7.410249,-6.097151,-3.5097,-2.1684668,-0.60896283,-0.0485027,0.6514616,2.7028692,2.9707599,4.883117,4.949963,6.6224422,6.0361514,7.499034,6.081181,3.510241,1.6695645,2.092388,1.3015618,0.94026124,-0.32375857,-1.391935,-1.9361286,-3.0073943,-3.8112407,-3.313333,-4.4388785,-6.5971003,-6.999032,-7.1437025,-6.0072136,-3.5875592,-1.480493,-2.147872,-0.5404063,2.9700093,4.661513,5.451815,6.5717754,7.5946083,6.7194304,7.4640574,5.4483247,2.9920006,2.2354176,3.5487604,2.1447654,0.4223697,-1.3235705,-2.591552,-2.9313154,-3.2654586,-3.3081844,-3.697515,-4.70546,-5.4612746,-7.484373,-7.063487,-5.160816,-2.7473576,-1.4726565,-1.056727,-0.17133898,0.3045774,1.5661538,2.3107285,3.0898612,5.1940475,6.088686,7.7914467,6.0717387,6.615112,5.6895814,4.6409]",1,74,175,"[1.589269182897e+12,1.589269182938e+12,1.58926918296e+12,1.589269182999e+12,1.589269183041e+12,1.589269183083e+12,1.589269183124e+12,1.589269183166e+12,1.589269183207e+12,1.58926918325e+12,1.589269183293e+12,1.589269183335e+12,1.589269183378e+12,1.589269183418e+12,1.589269183458e+12,1.5892691835e+12,1.589269183543e+12,1.589269183583e+12,1.589269183625e+12,1.589269183667e+12,1.589269183708e+12,1.58926918375e+12,1.589269183792e+12,1.589269183834e+12,1.589269183875e+12,1.589269183916e+12,1.589269183958e+12,1.589269183999e+12,1.589269184041e+12,1.589269184082e+12,1.589269184126e+12,1.589269184168e+12,1.58926918421e+12,1.589269184252e+12,1.589269184295e+12,1.589269184337e+12,1.589269184379e+12,1.589269184422e+12,1.589269184463e+12,1.589269184505e+12,1.589269184548e+12,1.589269184587e+12,1.589269184638e+12,1.589269184679e+12,1.58926918472e+12,1.589269184762e+12,1.589269184804e+12,1.589269184847e+12,1.589269184887e+12,1.589269184928e+12,1.589269184971e+12,1.589269185014e+12,1.589269185055e+12,1.589269185097e+12,1.589269185119e+12,1.589269185161e+12,1.589269185203e+12,1.589269185245e+12,1.589269185288e+12,1.589269185331e+12,1.589269185372e+12,1.589269185414e+12,1.589269185456e+12,1.589269185499e+12,1.589269185542e+12,1.589269185584e+12,1.589269185626e+12,1.589269185668e+12,1.58926918571e+12,1.589269185752e+12,1.589269185795e+12,1.589269185837e+12,1.589269185879e+12,1.589269185919e+12,1.589269185962e+12,1.589269186004e+12,1.589269186047e+12,1.58926918609e+12,1.589269186132e+12,1.589269186173e+12,1.589269186214e+12,1.589269186255e+12,1.589269186296e+12,1.589269186337e+12,1.589269186358e+12,1.5892691864e+12,1.589269186443e+12,1.589269186484e+12,1.589269186525e+12,1.589269186566e+12,1.589269186609e+12,1.58926918665e+12,1.589269186691e+12,1.589269186733e+12,1.589269186776e+12,1.58926918682e+12,1.589269186862e+12,1.589269186903e+12,1.589269186945e+12,1.589269186987e+12,1.589269187028e+12,1.58926918707e+12,1.589269187112e+12,1.589269187154e+12,1.589269187195e+12,1.589269187237e+12,1.589269187279e+12,1.58926918732e+12,1.589269187362e+12,1.589269187404e+12,1.589269187446e+12,1.589269187488e+12,1.589269187531e+12,1.589269187571e+12,1.589269187612e+12,1.589269187654e+12,1.589269187695e+12,1.58926918774e+12,1.589269187781e+12,1.589269187822e+12,1.589269187864e+12,1.589269187905e+12,1.589269187946e+12,1.589269187988e+12,1.58926918803e+12,1.589269188073e+12,1.589269188116e+12,1.589269188158e+12,1.589269188202e+12,1.589269188245e+12,1.589269188286e+12,1.589269188328e+12,1.589269188371e+12,1.589269188414e+12,1.589269188456e+12,1.589269188498e+12,1.58926918854e+12,1.589269188582e+12,1.589269188623e+12,1.589269188664e+12,1.589269188705e+12,1.589269188747e+12,1.589269188787e+12,1.589269188829e+12,1.58926918887e+12]","[1.589269182938e+12,1.58926918296e+12,1.589269182999e+12,1.589269183041e+12,1.589269183083e+12,1.589269183124e+12,1.589269183166e+12,1.589269183207e+12,1.58926918325e+12,1.589269183293e+12,1.589269183335e+12,1.589269183378e+12,1.589269183418e+12,1.589269183458e+12,1.5892691835e+12,1.589269183543e+12,1.589269183583e+12,1.589269183625e+12,1.589269183667e+12,1.589269183708e+12,1.58926918375e+12,1.589269183792e+12,1.589269183834e+12,1.589269183875e+12,1.589269183916e+12,1.589269183958e+12,1.589269183999e+12,1.589269184041e+12,1.589269184082e+12,1.589269184126e+12,1.589269184168e+12,1.58926918421e+12,1.589269184252e+12,1.589269184295e+12,1.589269184337e+12,1.589269184379e+12,1.589269184422e+12,1.589269184463e+12,1.589269184505e+12,1.589269184548e+12,1.589269184587e+12,1.589269184638e+12,1.589269184679e+12,1.58926918472e+12,1.589269184762e+12,1.589269184804e+12,1.589269184847e+12,1.589269184887e+12,1.589269184928e+12,1.589269184971e+12,1.589269185014e+12,1.589269185055e+12,1.589269185097e+12,1.589269185119e+12,1.589269185161e+12,1.589269185203e+12,1.589269185245e+12,1.589269185288e+12,1.589269185331e+12,1.589269185372e+12,1.589269185414e+12,1.589269185456e+12,1.589269185499e+12,1.589269185542e+12,1.589269185584e+12,1.589269185626e+12,1.589269185668e+12,1.58926918571e+12,1.589269185752e+12,1.589269185795e+12,1.589269185837e+12,1.589269185879e+12,1.589269185919e+12,1.589269185962e+12,1.589269186004e+12,1.589269186047e+12,1.58926918609e+12,1.589269186132e+12,1.589269186173e+12,1.589269186214e+12,1.589269186255e+12,1.589269186296e+12,1.589269186337e+12,1.589269186358e+12,1.5892691864e+12,1.589269186443e+12,1.589269186484e+12,1.589269186525e+12,1.589269186566e+12,1.589269186609e+12,1.58926918665e+12,1.589269186691e+12,1.589269186733e+12,1.589269186776e+12,1.58926918682e+12,1.589269186862e+12,1.589269186903e+12,1.589269186945e+12,1.589269186987e+12,1.589269187028e+12,1.58926918707e+12,1.589269187112e+12,1.589269187154e+12,1.589269187195e+12,1.589269187237e+12,1.589269187279e+12,1.58926918732e+12,1.589269187362e+12,1.589269187404e+12,1.589269187446e+12,1.589269187488e+12,1.589269187531e+12,1.589269187571e+12,1.589269187612e+12,1.589269187654e+12,1.589269187695e+12,1.58926918774e+12,1.589269187781e+12,1.589269187822e+12,1.589269187864e+12,1.589269187905e+12,1.589269187946e+12,1.589269187988e+12,1.58926918803e+12,1.589269188073e+12,1.589269188116e+12,1.589269188158e+12,1.589269188202e+12,1.589269188245e+12,1.589269188286e+12,1.589269188328e+12,1.589269188371e+12,1.589269188414e+12,1.589269188456e+12,1.589269188498e+12,1.58926918854e+12,1.589269188582e+12,1.589269188623e+12,1.589269188664e+12,1.589269188705e+12,1.589269188747e+12,1.589269188787e+12,1.589269188829e+12,1.58926918887e+12]","{""language"":""zh_CN"",""city"":""Wuxi"",""province"":""Jiangsu"",""country"":""China"",""avatarUrl"":""https://wx.qlogo.cn/mmopen/vi_32/TkutvetqnTpaBg7Z3rYt4LoiaJFw9u5vSUEYpickKhs1N1RSxUuqqZoPAziaS0foakJh5ibdxxxQXWlUtdtuAxVfug/132"",""nickName"":""Simplify"",""gender"":1.0}"
"[-3.8141327,-4.4154615,-2.993185,-1.9379184,-1.0586431,-0.8634717,-0.4712153,-0.80366075,-0.37230605,-0.44125137,-0.28347155,-0.2785874,-1.2730726,-1.1976612,-1.664315,-2.9251657,-1.9024289,-3.8288147,-2.9458103,-2.0811799,-1.9343809,-0.93789977,-1.3471551,-0.8266441,-0.33013552,-0.5191558,-0.7494694,-0.6915192,-0.47181287,-0.47189808,-0.24772422,-1.5209243,-3.9750416,-5.0349197,-3.342858,-2.0926645,-1.7056208,-1.3202193,-1.0122033,-0.44938785,-0.05658744,-0.4218746,-0.46674103,-0.681884,-2.0277913,-1.9396318,-3.5113575,-3.0263283,-3.3868282,-1.8666537,-1.4979447,-0.35107425,-0.50702393,-1.3379307,-0.8841106,-0.5077987,-0.30613315,-0.31104988,-0.35483795,-0.18008035,-0.6003441,-1.8518718,-3.3087552,-5.0030656,-3.590157,-2.8603482,-2.2619221,-1.1222504,-0.5448389,-0.9452203,-0.38074797,-0.46519622,-0.21392672,-1.431749,-1.8596914,-2.2943196,-3.922376,-2.828575,-2.712096,-1.72872,-1.4790641,-0.39089268,-0.33347017,-1.0165818,-0.9349923,-0.70999765,-0.48949933,-0.5213566,-0.42015558,-0.45513773,-1.0984185,-2.0176501,-3.2203076,-4.4803076,-3.7841353,-2.5292768,-2.3497825,-1.7242773,-0.5226418,-0.7755997,-0.29798904,-0.5373642,-0.5307907,-1.0881752,-1.7652363,-2.942904,-3.9332309,-3.1868682,-3.2671459,-2.1628556,-1.5362922,-0.49720007,-0.32708532,-0.6632513,-0.5206412,-0.8373097,-0.74596334,-0.86868346,-0.8365005,-0.42090163,-1.4552944,-1.9780915,-4.7457232,-4.2703586,-3.572284,-1.7312473,-1.1644775,-1.1761717,-0.8635109,-0.16487622,-0.08246684,-0.27743915,-0.90967596,-1.1544926,-1.2145545,-2.342708,-2.8235424,-3.7309487,-3.0754967,-2.8949366,-2.6886568,-1.2923393]","[0.2727379,0.8577936,1.3695648,0.63728666,0.5628988,-0.06820602,-0.3225612,-0.6337155,-0.7731528,-0.8333316,-0.7344559,-0.55129176,-0.40051642,0.35159138,0.3206162,0.8001269,0.7854332,1.4335339,0.7942103,-0.555179,0.0036478057,-0.83222353,-1.2060388,-1.5009921,-1.4343508,-1.1357547,-0.76828396,-0.4822018,-0.33641216,-0.27999327,-0.63901246,-0.326662,-0.07638557,0.4996613,1.1156626,0.72315615,0.6755039,0.37126404,-0.013079045,-0.38301384,-0.5210827,-0.3034957,0.11582287,0.37631202,0.8225107,0.54058874,0.96639365,1.4242542,0.91888124,-1.1345787,-0.32571775,-0.57431537,-0.81908417,-0.9912264,-1.1849843,-1.0654044,-0.79251623,-0.57421005,-0.4250656,-0.68939316,-0.6284425,-0.6467984,-0.24500248,0.33470556,1.0908749,0.6835599,0.94797456,0.43696195,0.073629364,-0.12676245,-0.516754,-0.42102322,-0.18556117,0.54313326,0.90582514,1.0773065,1.1335108,0.7203626,1.5672674,-0.46387944,-0.57716924,-0.27264884,-0.6249652,-0.94668835,-1.1192243,-1.0219238,-0.80433977,-0.55174476,-0.6307927,-0.56924254,-0.46462837,-0.06800203,0.29166165,0.35782397,1.420252,0.8461741,0.77477896,0.50313866,-0.11174314,-0.104699396,-0.43806133,-0.1926844,0.11802647,0.5483622,0.82384,1.120021,1.4195433,1.1638291,0.984286,-0.5432903,-0.5224397,-0.7045274,-0.93990326,-1.2509886,-1.4399765,-1.248174,-0.88311183,-0.55729735,-0.50245863,-0.7415178,-0.9862215,-0.7911333,0.16286606,0.70796835,1.1140804,0.51863486,0.5337978,0.072244555,-0.21076445,-0.51008755,-0.68198836,-0.85651606,-0.23667355,0.16184518,0.48166838,0.9638549,1.3978891,1.5619552,1.4140424,1.272931,-0.48364887,-0.45634443]","[-0.42155474,0.78373617,-0.30201226,0.575839,-0.12890285,0.26158473,0.9563314,0.35456115,0.19120477,0.37420222,0.23853719,0.14686224,0.29164344,0.6388257,-0.5468424,0.49933085,-0.0017879897,-0.12606525,0.36683097,-1.8355436,0.6423212,-0.7963115,-0.78755444,-0.102579094,-0.27039635,-0.45209423,-0.21871129,-0.40990457,-0.21832821,-0.33056933,-0.5106162,-1.1902248,-0.2035598,-0.43225017,0.791592,3.7349546e-05,0.18645085,0.06345496,0.26422316,0.11007677,-0.13137177,0.34481868,1.043508,0.12112075,0.25383517,-0.56559664,0.5086529,0.15114595,-2.0212483,0.3574993,-0.6322569,-0.39608237,-0.78734857,-0.42163044,0.5395889,0.24040945,-0.24733157,-0.5834947,-0.34047368,-0.3904493,-0.59249115,-0.670343,-0.4568108,-0.33935988,0.23170224,0.18417254,0.10939586,0.44061357,0.3906111,0.417906,-0.37186167,0.81577635,0.4291645,0.34915122,-0.6594254,0.7524909,-1.339124,2.1851113,-1.3390789,-1.7659814,0.48995137,-0.29054213,-0.599625,-0.88648194,0.07598908,0.34463674,-0.18794003,-0.3634695,-0.41185346,-0.52669376,-0.9028783,-0.6629611,-0.4979269,0.3728136,0.40916047,0.4751226,0.32212836,-0.28470123,0.28941303,0.25073037,-0.32059607,0.41249603,0.40571856,0.298104,-0.20663016,-0.80571496,0.66767585,0.2965554,-0.33861867,-2.3740628,0.7216861,0.58631605,-0.14682107,-0.5710401,-0.20589466,-0.4115786,-0.22299404,-0.23014024,-0.5703774,-0.15201074,-1.5255182,-0.9129015,-0.25903347,0.59278715,-0.41119838,0.34199542,-0.08772259,0.51712173,0.07921168,0.22935495,0.03474178,0.40188208,0.07788529,0.77860874,-0.79117733,0.116860986,-1.0280415,0.22419114,0.43760258,-0.96072423,-0.38355494,0.12235137]","[-0.058241636,1.6433846,-0.3920882,1.5340571,2.124956,-0.28028244,-0.48963466,0.06578146,-0.55689967,-0.38296014,0.16121607,-0.34274775,-1.7113651,1.5759974,0.5824862,0.03874631,0.07293731,-3.1592553,1.0856297,-3.3807552,-2.600209,-0.91936964,-1.708241,-0.9325643,0.113882735,0.23015657,1.1493342,1.1280411,0.87362456,0.30855677,2.7677083,1.4034891,2.9205642,0.9274854,1.1142356,0.49363148,0.2233847,-0.4614825,-0.82472044,0.8162207,1.2164247,-1.4614165,-0.94753927,-1.1018263,1.2476137,-0.40945423,-3.4492245,2.4082053,-3.2444973,-2.3927069,-2.1167178,0.18580775,1.6669815,-0.5689075,-1.6276417,-0.9051452,0.7210828,1.0927157,0.6136403,0.7270518,0.780616,1.3376029,2.1381855,1.9721348,0.38186058,0.48717377,0.030927233,-1.0464994,-1.5463268,0.8933468,-0.3270398,0.2337694,-0.90703017,1.6165763,-1.6312546,2.979312,-5.6580086,-3.639343,0.91807806,-2.00383,-2.3912406,-0.83150977,1.9134045,0.8662593,-1.0288891,-0.979025,-0.44577456,0.063599795,0.5247158,1.3115276,2.7256284,2.989627,1.0577044,0.86449647,-0.49588296,-2.0457528,-0.28763026,-1.0351373,-0.8451059,1.075018,0.35871753,-0.6273586,-0.5424832,1.3230468,1.1390542,0.58253855,-2.4643176,-3.6078224,2.7575853,-0.816849,-3.564835,-2.8872108,-1.2334765,-1.1683234,-0.17503907,0.23233823,0.1137082,1.2101939,-0.21809635,2.3593187,3.043069,1.4842803,-0.38983673,1.9000177,-0.75710636,0.80019855,-0.51228905,-0.27321383,-0.26274186,0.34838519,0.45622906,0.824511,-1.794181,1.4205235,0.040421825,2.8781352,1.6726189,-2.3370657,-0.94670147,-1.5147538,-2.9070377]","[1.1775911,1.215011,2.2527313,0.073548175,-0.41469023,-0.39790016,-0.696142,-0.58896136,0.27335346,0.059829887,-0.22844614,0.034348078,0.31592205,-1.7463764,0.51443577,-1.0832386,-1.4702479,0.33463198,-0.55723125,3.0114608,0.7061428,0.37765434,1.1214439,-0.0169646,-1.2109443,0.031503193,0.14716616,-0.35266122,-0.110845864,0.086655594,0.7685906,2.4120624,2.2973943,2.4148202,0.09789552,-0.024207717,-0.37753215,0.36561158,-0.038309976,-0.030438542,-1.1545876,0.22064452,-0.64198446,0.0017627826,-0.71020937,-1.3198354,-0.6068859,-3.0240622,2.148762,1.441607,-0.034330625,-1.5583696,-0.6945712,1.0229374,0.8072846,0.032620203,-1.0933441,-0.9397376,-0.16350244,-0.11725122,0.9316742,1.3526825,1.731384,1.4032098,-0.26677358,1.7108765,-0.28591985,-0.52117276,0.34702381,-0.27358037,0.4404862,-0.69991195,0.4612207,-1.4662685,0.86458373,-2.687807,1.7991028,-0.43833944,-1.2568814,2.0723517,0.6831393,-0.4436976,-1.9420977,-1.0262012,-0.18135716,-0.46444955,-0.34978142,0.06033603,0.31731832,-0.53710765,1.6008334,-1.782627,2.15508,1.9607902,0.93326247,1.4472793,1.4223037,-0.3148225,0.14051646,-0.22884756,0.05131268,0.52572805,-0.41671482,-1.7225003,-2.8133836,-0.4155629,0.081611596,0.6967005,-0.53859115,2.3790233,2.0568357,1.2270887,-0.08651597,0.06063274,-0.49129272,-0.9202074,0.62838835,-0.5765695,0.65147907,-1.0953337,1.2172624,-0.10135127,3.6822608,0.5987527,1.5237771,-0.30295426,0.6362598,0.47221628,-0.054157566,-0.20526817,-0.35719907,-0.26989773,1.4990633,-0.9338035,0.45471063,-2.0594013,0.5738468,1.2439834,-1.027231,2.313434,4.0583615]","[-7.052579,-6.6461964,-4.781661,-2.839127,-2.1525495,-0.7994306,-0.6278124,-0.061522856,0.30503118,0.53731704,2.5231178,2.2794523,3.6377723,4.8395185,4.459735,7.5555654,6.754686,6.6768966,3.248145,3.3491821,3.6606011,2.2468147,0.5324476,0.3279997,-0.4365243,-1.4840186,-2.4125164,-2.7961745,-3.418646,-2.9703758,-4.387391,-5.016879,-7.111885,-6.527758,-4.8104067,-3.7474663,-2.7364495,-1.8968587,-0.43542475,0.943333,1.3553005,2.8842437,4.711551,4.144616,6.0500617,4.5317125,6.9310865,5.9511013,3.2477958,1.697193,2.7996826,3.2077582,0.8739213,-0.13625786,-0.63207096,-0.95411915,-1.3688093,-1.9282223,-2.3556535,-3.1107526,-4.1045084,-5.3628907,-7.417789,-6.836926,-5.8432226,-5.143485,-2.9289243,-0.8022755,-0.46293113,0.59332466,1.557078,3.899938,5.076744,5.5686474,7.352601,4.869207,5.7989435,4.7468066,3.3059852,1.9185706,2.1191263,2.9711788,1.5554025,0.414219,-0.27646014,-0.8086634,-1.4784335,-1.9175409,-2.6674216,-3.950832,-4.885543,-5.593641,-6.820031,-7.5616565,-5.8521066,-4.7125983,-4.023019,-1.0936233,-0.54564226,0.6095911,1.3148088,3.2420712,4.553791,5.660679,7.162325,5.2546105,6.0005116,5.145021,2.7487364,1.6449728,2.3385317,2.5212677,1.339959,0.7416951,-0.55005795,-1.5365181,-2.9550169,-4.051101,-3.7870677,-5.491539,-5.2492523,-8.077262,-7.270117,-7.3932147,-3.728704,-2.4004037,-1.7213659,-1.3763841,-0.18647097,1.1385655,2.3225272,3.0611854,3.9320173,5.714365,6.589194,7.743642,6.8665266,7.165816,6.431329,2.313818,2.2923853]",1,74,175,"[1.589376953326e+12,1.589376953361e+12,1.589376953403e+12,1.589376953443e+12,1.589376953486e+12,1.589376953528e+12,1.589376953571e+12,1.589376953616e+12,1.589376953657e+12,1.589376953699e+12,1.589376953741e+12,1.589376953782e+12,1.589376953824e+12,1.589376953869e+12,1.58937695391e+12,1.58937695395e+12,1.589376953991e+12,1.589376954037e+12,1.589376954073e+12,1.589376954114e+12,1.589376954157e+12,1.589376954198e+12,1.589376954241e+12,1.589376954284e+12,1.589376954327e+12,1.589376954368e+12,1.58937695441e+12,1.589376954453e+12,1.589376954495e+12,1.589376954537e+12,1.589376954578e+12,1.589376954622e+12,1.589376954665e+12,1.589376954706e+12,1.589376954748e+12,1.589376954789e+12,1.589376954832e+12,1.589376954876e+12,1.589376954917e+12,1.589376954964e+12,1.589376955005e+12,1.589376955047e+12,1.58937695509e+12,1.589376955132e+12,1.589376955174e+12,1.589376955217e+12,1.589376955258e+12,1.589376955299e+12,1.589376955342e+12,1.589376955383e+12,1.589376955433e+12,1.589376955469e+12,1.589376955512e+12,1.589376955554e+12,1.589376955596e+12,1.589376955638e+12,1.589376955679e+12,1.589376955721e+12,1.589376955761e+12,1.589376955802e+12,1.589376955845e+12,1.589376955886e+12,1.589376955928e+12,1.589376955971e+12,1.589376956013e+12,1.589376956056e+12,1.589376956098e+12,1.589376956146e+12,1.589376956187e+12,1.589376956228e+12,1.589376956273e+12,1.589376956314e+12,1.589376956371e+12,1.589376956409e+12,1.58937695645e+12,1.589376956493e+12,1.589376956533e+12,1.589376956575e+12,1.589376956618e+12,1.589376956658e+12,1.589376956702e+12,1.589376956743e+12,1.589376956787e+12,1.589376956827e+12,1.589376956869e+12,1.589376956911e+12,1.589376956953e+12,1.589376956995e+12,1.589376957036e+12,1.58937695708e+12,1.589376957122e+12,1.589376957164e+12,1.589376957206e+12,1.589376957253e+12,1.589376957293e+12,1.589376957335e+12,1.589376957376e+12,1.589376957419e+12,1.589376957463e+12,1.589376957505e+12,1.589376957547e+12,1.589376957595e+12,1.589376957636e+12,1.589376957677e+12,1.58937695772e+12,1.589376957762e+12,1.589376957803e+12,1.589376957844e+12,1.589376957887e+12,1.58937695793e+12,1.589376957972e+12,1.589376958014e+12,1.589376958055e+12,1.589376958096e+12,1.589376958138e+12,1.58937695818e+12,1.589376958221e+12,1.589376958263e+12,1.589376958305e+12,1.589376958347e+12,1.589376958389e+12,1.589376958432e+12,1.589376958474e+12,1.589376958517e+12,1.589376958558e+12,1.589376958606e+12,1.589376958649e+12,1.589376958691e+12,1.589376958735e+12,1.589376958778e+12,1.589376958819e+12,1.589376958862e+12,1.589376958905e+12,1.589376958947e+12,1.589376958988e+12,1.58937695903e+12,1.589376959073e+12,1.589376959115e+12,1.589376959159e+12,1.589376959202e+12,1.589376959251e+12,1.589376959292e+12]","[1.589376953361e+12,1.589376953403e+12,1.589376953443e+12,1.589376953486e+12,1.589376953528e+12,1.589376953571e+12,1.589376953616e+12,1.589376953657e+12,1.589376953699e+12,1.589376953741e+12,1.589376953782e+12,1.589376953824e+12,1.589376953869e+12,1.58937695391e+12,1.58937695395e+12,1.589376953991e+12,1.589376954037e+12,1.589376954073e+12,1.589376954114e+12,1.589376954157e+12,1.589376954198e+12,1.589376954241e+12,1.589376954284e+12,1.589376954327e+12,1.589376954368e+12,1.58937695441e+12,1.589376954453e+12,1.589376954495e+12,1.589376954537e+12,1.589376954578e+12,1.589376954622e+12,1.589376954665e+12,1.589376954706e+12,1.589376954748e+12,1.589376954789e+12,1.589376954832e+12,1.589376954876e+12,1.589376954917e+12,1.589376954964e+12,1.589376955005e+12,1.589376955047e+12,1.58937695509e+12,1.589376955132e+12,1.589376955174e+12,1.589376955217e+12,1.589376955258e+12,1.589376955299e+12,1.589376955342e+12,1.589376955383e+12,1.589376955433e+12,1.589376955469e+12,1.589376955512e+12,1.589376955554e+12,1.589376955596e+12,1.589376955638e+12,1.589376955679e+12,1.589376955721e+12,1.589376955761e+12,1.589376955802e+12,1.589376955845e+12,1.589376955886e+12,1.589376955928e+12,1.589376955971e+12,1.589376956013e+12,1.589376956056e+12,1.589376956098e+12,1.589376956146e+12,1.589376956187e+12,1.589376956228e+12,1.589376956273e+12,1.589376956314e+12,1.589376956371e+12,1.589376956409e+12,1.58937695645e+12,1.589376956493e+12,1.589376956533e+12,1.589376956575e+12,1.589376956618e+12,1.589376956658e+12,1.589376956702e+12,1.589376956743e+12,1.589376956787e+12,1.589376956827e+12,1.589376956869e+12,1.589376956911e+12,1.589376956953e+12,1.589376956995e+12,1.589376957036e+12,1.58937695708e+12,1.589376957122e+12,1.589376957164e+12,1.589376957206e+12,1.589376957253e+12,1.589376957293e+12,1.589376957335e+12,1.589376957376e+12,1.589376957419e+12,1.589376957463e+12,1.589376957505e+12,1.589376957547e+12,1.589376957595e+12,1.589376957636e+12,1.589376957677e+12,1.58937695772e+12,1.589376957762e+12,1.589376957803e+12,1.589376957844e+12,1.589376957887e+12,1.58937695793e+12,1.589376957972e+12,1.589376958014e+12,1.589376958055e+12,1.589376958096e+12,1.589376958138e+12,1.58937695818e+12,1.589376958221e+12,1.589376958263e+12,1.589376958305e+12,1.589376958347e+12,1.589376958389e+12,1.589376958432e+12,1.589376958474e+12,1.589376958517e+12,1.589376958558e+12,1.589376958606e+12,1.589376958649e+12,1.589376958691e+12,1.589376958735e+12,1.589376958778e+12,1.589376958819e+12,1.589376958862e+12,1.589376958905e+12,1.589376958947e+12,1.589376958988e+12,1.58937695903e+12,1.589376959073e+12,1.589376959115e+12,1.589376959159e+12,1.589376959202e+12,1.589376959251e+12,1.589376959292e+12]","{""province"":""Jiangsu"",""country"":""China"",""avatarUrl"":""https://wx.qlogo.cn/mmopen/vi_32/TkutvetqnTpaBg7Z3rYt4LoiaJFw9u5vSUEYpickKhs1N1RSxUuqqZoPAziaS0foakJh5ibdxxxQXWlUtdtuAxVfug/132"",""nickName"":""Simplify"",""gender"":1.0,""language"":""zh_CN"",""city"":""Wuxi""}"
"[-3.799436,-2.8399322,-2.2659357,-1.8740788,-0.91800106,-0.57459885,-1.9543321,-2.0618567,-1.4067085,-0.9662558,-0.5682121,-0.52769834,-0.33012497,-0.59130746,-1.5779628,-2.8997507,-3.4031746,-3.7251651,-3.152978,-2.493134,-1.7867315,-0.71692455,-0.64088374,-0.6074578,-0.45388603,-0.23756707,-1.0340595,-1.1227063,-1.509706,-2.7515545,-2.6287434,-2.7418342,-3.3755326,-2.2653017,-1.8579359,-0.7064025,-0.532683,-0.95278215,-1.0377897,-1.1266339,-0.81801635,-0.58428,-0.50522447,-0.6803766,-0.71363586,-1.6991476,-3.466992,-4.6552544,-4.334339,-3.0265508,-2.333751,-1.69378,-0.68192226,-0.06462046,-0.48318148,-0.90320003,-0.032214463,-0.81348944,-1.0495635,-2.5077062,-2.2919817,-4.2029753,-3.2065754,-2.7621236,-1.9266745,-1.3907564,-0.5288447,-1.0691528,-1.5255643,-1.5872408,-1.1439965,-0.48242205,-0.82031095,-0.8573723,-0.7442223,-1.6105843,-2.3303485,-2.4756274,-3.539929,-2.9130137,-2.4754274,-1.6468937,-0.9553353,-0.220777,-0.89138526,-0.5129529,-0.62100136,-0.61896336,-0.88874197,-1.7482643,-1.77703,-3.2833977,-2.7356637,-2.4102542,-2.07566,-1.7146288,-1.2339734,-0.58613884,-0.86443615,-1.4804528,-1.1553307,-0.78158236,-0.77683794,-0.7210761,-0.766157,-0.5766607,-1.5066577,-4.1318545,-3.732891,-3.188393,-1.7408068,-1.6024679,-0.8645261,-0.88317215,-0.35696685,-0.56209534,-0.4162406,-1.1567748,-1.2945037,-1.613486,-2.5812302,-2.4428163,-2.8626266,-3.2018723,-2.7611554,-2.6666102,-1.8381512,-0.44222823,-0.35284692,-0.5907166,-1.2813528,-1.304704,-0.95497334,-0.53177613,-0.40350628,-0.6259497,-0.49617147,-1.1749074,-2.7148101,-4.177338,-3.891658,-2.8493068,-2.5793166]","[2.598681,2.0579782,0.77881944,0.07067588,-0.004416823,-0.4486897,-0.8230432,-1.2801644,-1.197029,-0.785889,-0.53807294,-0.33527634,-0.3737004,-0.57367563,0.030475315,0.4608666,1.4647286,1.4756049,1.7669237,1.3112323,0.93041074,0.532572,0.11497148,-0.041264545,-0.17223886,-0.24566042,0.29020405,0.5279962,1.0413456,0.9637936,1.3636013,1.7571843,1.4673584,0.53504086,-0.13593799,-0.32202876,-0.9491583,-1.1976256,-1.3969736,-1.1524384,-0.7691747,-0.38240668,-0.32331398,-0.30382037,-0.42623973,-0.4010211,0.33388674,1.427855,2.2402937,2.0757127,2.0131817,1.4180253,1.0841826,0.07620935,-0.41056633,-0.6102648,-0.243723,0.23960307,0.6826664,1.1996281,1.3995861,1.9184462,1.3880959,1.717268,-0.6792092,-0.35443857,-0.3095224,-0.54495,-1.0812511,-1.3590341,-1.126516,-0.8483241,-0.46404323,-0.20190878,-0.09655624,0.30545515,0.50571954,1.0489285,1.4616103,1.5545609,1.143444,1.0461081,0.64622086,-0.16546424,-0.14965771,-0.48941216,-0.3031586,-0.11017732,0.26139128,0.47295538,0.63865423,0.9624289,1.1837986,1.656645,1.7453644,-0.5081962,-0.104180336,-0.32131624,-0.70106053,-1.1271518,-1.2553269,-1.097212,-0.8422907,-0.5480902,-0.4910996,-0.6369208,-0.4997034,-0.0028720845,1.8964586,1.7047377,1.2329574,1.0207392,0.56251,0.45356622,-0.030711863,-0.033284195,-0.1512944,0.21051256,0.31688505,0.7014178,1.0189981,1.211422,1.8107646,1.6072018,1.5515758,0.5681814,-0.22162743,-0.5158337,-0.59710914,-0.94041365,-1.5536425,-1.4459685,-1.04292,-0.62990963,-0.46639147,-0.31104797,-0.43529457,-0.3525826,0.45230684,1.6012278,2.0832226,1.6444527,1.4710349]","[-0.3498666,0.15423064,-0.26682037,-0.54063946,0.235894,-0.28762695,-1.4857218,-0.52809197,-0.13212833,-0.35211045,-0.08285853,-0.18886805,0.053725887,-0.6393926,-0.4550305,-0.012646173,-0.10667318,0.21969771,0.11285885,0.6811274,0.22600786,0.22023591,0.33801147,0.20286167,-0.0015294161,0.41694158,0.13186881,0.5182537,-0.47027197,0.5198587,0.6403791,-1.06374,0.35948652,-0.9890916,-0.860387,0.23586527,-0.24999681,-0.55968964,-0.0053227893,0.23121095,-0.44276738,-0.7055425,-0.46167964,-0.19365261,-0.076648936,-0.30580276,-0.39336255,-0.049362693,0.564774,0.19025859,0.46372622,0.4907395,0.87319404,0.23171756,0.0027284322,0.2125783,-0.039436333,0.27436882,0.40001655,-0.31744432,0.4517447,-0.63369256,1.1834471,-0.5856447,-0.59891045,1.0906546,0.038787983,-0.48764238,-0.28868997,-0.32521492,-0.43568438,-0.67513615,-0.66158307,-0.50549644,-0.2350407,-0.19393225,0.0062172627,-0.29213184,-0.40422934,0.6124301,0.3663713,0.36956036,0.029199684,0.58004034,0.131502,-0.14057413,0.5128735,-0.13783036,0.48576054,0.23388764,0.021584207,0.3332365,0.36408147,-0.42419988,-1.1788571,-0.5526565,0.65074116,-0.38926464,-0.6230115,-0.7442529,0.031143775,-0.2772859,-0.6386715,-0.5427732,-0.4793728,-0.79254305,-0.6173363,-0.57505757,-0.17890432,0.3173936,0.3077871,0.49159184,-0.33636522,0.41493526,0.473734,0.14296833,0.012316732,0.6026953,-0.024995465,0.43381786,-0.25537992,0.4912787,-0.7211259,-0.29300624,-0.034876816,-1.0218232,-0.66628337,0.7194816,0.2695057,-1.0356886,-0.802272,-0.21720389,0.06236704,-0.0006521805,-0.3473192,-0.45717955,-0.42072636,-0.8010041,-0.72457737,-0.22530107,0.12168194,0.25653774,0.6176571]","[0.13714798,-1.5192916,-0.3296229,-2.3461065,-3.1751902,0.599189,0.65442866,0.22631684,1.1582179,1.0567096,1.6945227,0.5305801,1.3379868,1.297373,0.24626596,-0.14849262,-0.33449236,0.8928406,-0.9536654,-0.35871753,0.100391336,-0.4133289,-0.32159436,0.7488684,0.19991001,0.4623377,-0.56389844,1.84408,0.5408252,-2.751756,1.1221769,-3.7966497,-2.5489485,-0.55021507,-2.3241677,-1.8282673,0.44395941,-0.09812241,-1.6968615,-1.0801145,0.77187186,1.8664027,1.3374807,-0.10957177,-0.7703185,-0.027960174,0.16144295,0.4527384,0.8040208,0.44334853,0.44292966,-1.0665009,-0.6819525,0.5777214,0.32194343,0.66818184,0.2400875,-0.40795326,1.4237,-0.40622538,2.9437072,-2.0786,-1.8163991,2.4791355,-3.4542334,-3.8056905,-2.0165882,-1.3703628,-0.87240285,-0.084264494,0.9513964,1.8236421,1.895637,1.0584898,0.34492943,-0.9986425,-0.12531464,2.3938587,1.1426497,0.14751522,-0.6607118,1.0313151,-0.2756922,-0.35927603,0.6231,-0.60037583,0.78716093,-0.6316696,-0.7845953,-0.87388635,0.022602014,-2.0190318,-2.5989523,-0.53080696,-0.0050963615,-3.2321055,-2.9287148,-1.937455,0.8910953,-0.02581342,-0.088278756,1.0178411,1.5386474,1.2512964,1.611986,0.4971745,-0.9914692,0.08237954,1.9942132,1.4208376,-0.33171728,1.9715239,0.9759707,-0.64830256,-0.23296654,0.6692814,0.41650537,0.2544341,-0.7014304,1.2570211,-1.013024,0.39891246,0.017819813,-2.3328943,-0.9316044,0.66687286,-2.576263,-4.256509,-1.3832957,0.17341591,0.34154347,-0.5008571,-0.8452804,0.041695915,1.1252836,0.6698574,0.5837254,0.8443903,2.0404644,2.278545,1.8212161,0.37781143]","[-1.1211122,0.8172853,2.73994,3.922383,0.7210828,-2.592547,0.86261153,1.689339,0.33138567,-0.30145326,-1.1117573,-1.3195038,-1.7747031,-2.0912535,-0.09892526,-0.15474088,2.4272468,0.8685107,0.3887721,1.1215137,0.13315117,-0.1092227,0.6343748,-0.015515977,0.8184372,-0.42320743,0.4852888,-1.2405975,0.94376934,1.0437243,-2.5376563,1.2718214,0.8668527,1.1495262,1.8499094,0.6989869,-0.69888216,-1.185864,-0.69294804,-1.2893795,-1.5733095,-1.7926277,-1.137082,-0.7390422,0.5856452,2.2399905,2.352442,3.616549,0.8409171,0.715585,1.3349849,1.2944235,-0.24223424,-0.9770702,0.48453832,0.3294309,-0.56948346,-0.2541025,-2.153265,-1.1314969,-2.1217444,0.6944316,-0.2072753,-1.0220997,3.9074955,1.9795524,0.09485865,0.40276963,0.37383208,-0.1437104,-1.3502914,-1.6021774,-1.3134127,-0.74272484,-0.10389945,1.8527019,2.8463702,1.6533155,0.8414756,0.75661767,1.5248244,0.9593726,-1.2381365,0.3975162,-0.6598566,0.9826029,-1.0559765,-0.6179338,0.415528,-0.3634299,-1.4164568,0.023265239,-1.0432183,-0.9708045,0.8541816,1.101041,0.28487265,-0.8422086,-0.87873834,0.061924282,-0.05211553,-0.89682,-0.7405781,-0.16173966,-0.54415876,-0.17283995,1.486846,5.0405107,1.6875763,-0.15571828,0.7769333,0.29775316,-0.90575606,0.061889376,0.4023333,-0.0461116,0.27078784,-0.90079933,0.3351381,-0.9680643,-0.22963297,-0.73879784,-0.7864977,0.29293606,1.073901,2.549036,3.127979,3.6314192,-0.045256387,-1.2859935,0.0027925267,-0.02745403,0.17097245,-0.52670544,-1.7823128,-1.7736385,-0.9242391,1.6700008,1.4501766,1.7548587,0.3978478,0.8322777]","[6.0703945,5.2609634,2.4374046,3.2842908,4.2731595,2.093191,-0.1998751,-1.2519246,-2.1299474,-2.370262,-2.5400474,-2.9001787,-3.3269117,-3.7898953,-5.5341773,-6.111532,-7.398503,-6.401536,-5.3375134,-4.438145,-2.544847,-0.9675931,-0.29637435,0.17777924,1.5762417,2.7843063,4.4029245,5.517946,5.170398,5.8683906,6.2427983,5.370256,4.0328975,1.6708212,3.0023851,2.9507933,2.0427508,1.0104584,-0.44123667,-1.291055,-1.6904386,-1.9284667,-2.5833666,-2.4850872,-3.7201867,-5.6355634,-7.1285877,-8.112133,-6.900683,-5.901656,-5.1353345,-3.4822984,-0.8734326,-0.28942794,-0.45638615,2.3469791,3.6052394,6.024597,5.3459783,8.299756,5.581214,6.582614,7.6950345,4.937554,2.236116,3.1985252,2.6344872,1.3853551,-0.47647488,-2.0124345,-1.8187727,-2.813872,-3.6507924,-3.4075284,-4.3803577,-5.7549963,-5.0233192,-6.741596,-5.8119287,-5.128702,-4.0767226,-3.4799597,-1.627921,-0.56897736,0.45422193,1.6125271,2.596631,3.965458,3.993418,4.3421874,3.8667595,4.3551726,4.7802825,5.3782845,3.1693609,2.7172856,3.390529,3.0672243,1.5308981,-0.52946305,-1.2312076,-2.0238314,-2.5331533,-3.1593776,-3.2477086,-3.6752095,-7.253588,-6.675308,-6.712571,-4.4720745,-3.3043447,-1.6333839,-1.6735264,-0.11960741,0.34253833,1.9682776,2.5996156,3.9323142,5.119208,4.513247,5.865406,6.369457,5.428864,6.1747828,3.9492087,1.4240141,2.012068,2.7314403,2.6395836,0.9905093,-0.43767622,-1.477107,-1.7716663,-2.0152967,-2.8250947,-2.9043152,-3.5817473,-5.118719,-6.558598,-6.923337,-5.7349772,-5.6382685]",1,74,175,"[1.589376972302e+12,1.589376972341e+12,1.589376972382e+12,1.589376972425e+12,1.589376972466e+12,1.589376972509e+12,1.58937697255e+12,1.589376972596e+12,1.589376972637e+12,1.589376972678e+12,1.589376972721e+12,1.589376972761e+12,1.589376972806e+12,1.589376972848e+12,1.589376972893e+12,1.589376972936e+12,1.589376972977e+12,1.589376973019e+12,1.589376973061e+12,1.589376973111e+12,1.589376973152e+12,1.589376973194e+12,1.589376973235e+12,1.589376973277e+12,1.589376973318e+12,1.589376973361e+12,1.589376973405e+12,1.589376973446e+12,1.589376973491e+12,1.589376973536e+12,1.589376973577e+12,1.589376973619e+12,1.589376973661e+12,1.589376973705e+12,1.589376973748e+12,1.589376973789e+12,1.589376973832e+12,1.589376973874e+12,1.589376973916e+12,1.589376973957e+12,1.589376973999e+12,1.589376974041e+12,1.589376974084e+12,1.589376974123e+12,1.589376974164e+12,1.589376974206e+12,1.589376974247e+12,1.589376974289e+12,1.589376974331e+12,1.589376974372e+12,1.589376974413e+12,1.589376974454e+12,1.589376974497e+12,1.589376974537e+12,1.589376974579e+12,1.589376974621e+12,1.589376974666e+12,1.589376974712e+12,1.589376974753e+12,1.589376974795e+12,1.589376974836e+12,1.589376974877e+12,1.589376974918e+12,1.589376974961e+12,1.589376975001e+12,1.589376975042e+12,1.589376975084e+12,1.589376975125e+12,1.589376975166e+12,1.589376975211e+12,1.589376975252e+12,1.589376975296e+12,1.58937697534e+12,1.589376975384e+12,1.589376975426e+12,1.589376975468e+12,1.58937697551e+12,1.589376975552e+12,1.589376975594e+12,1.589376975637e+12,1.589376975678e+12,1.589376975719e+12,1.58937697576e+12,1.589376975801e+12,1.589376975845e+12,1.589376975889e+12,1.589376975931e+12,1.589376975974e+12,1.589376976016e+12,1.589376976059e+12,1.589376976101e+12,1.589376976146e+12,1.589376976188e+12,1.589376976229e+12,1.589376976272e+12,1.589376976312e+12,1.589376976353e+12,1.589376976395e+12,1.58937697644e+12,1.589376976482e+12,1.589376976523e+12,1.589376976564e+12,1.589376976608e+12,1.589376976649e+12,1.58937697669e+12,1.589376976731e+12,1.589376976776e+12,1.589376976819e+12,1.589376976862e+12,1.589376976906e+12,1.589376976947e+12,1.589376976988e+12,1.58937697703e+12,1.589376977072e+12,1.589376977115e+12,1.589376977157e+12,1.5893769772e+12,1.589376977241e+12,1.589376977281e+12,1.589376977305e+12,1.589376977346e+12,1.589376977388e+12,1.58937697743e+12,1.589376977472e+12,1.589376977514e+12,1.589376977556e+12,1.589376977599e+12,1.589376977641e+12,1.589376977663e+12,1.589376977705e+12,1.589376977747e+12,1.589376977789e+12,1.589376977832e+12,1.589376977874e+12,1.589376977915e+12,1.589376977957e+12,1.589376977998e+12,1.589376978039e+12,1.589376978081e+12,1.589376978123e+12,1.589376978168e+12,1.589376978209e+12,1.58937697825e+12]","[1.589376972341e+12,1.589376972382e+12,1.589376972425e+12,1.589376972466e+12,1.589376972509e+12,1.58937697255e+12,1.589376972596e+12,1.589376972637e+12,1.589376972678e+12,1.589376972721e+12,1.589376972761e+12,1.589376972806e+12,1.589376972848e+12,1.589376972893e+12,1.589376972936e+12,1.589376972977e+12,1.589376973019e+12,1.589376973061e+12,1.589376973111e+12,1.589376973152e+12,1.589376973194e+12,1.589376973235e+12,1.589376973277e+12,1.589376973318e+12,1.589376973361e+12,1.589376973405e+12,1.589376973446e+12,1.589376973491e+12,1.589376973536e+12,1.589376973577e+12,1.589376973619e+12,1.589376973661e+12,1.589376973705e+12,1.589376973748e+12,1.589376973789e+12,1.589376973832e+12,1.589376973874e+12,1.589376973916e+12,1.589376973957e+12,1.589376973999e+12,1.589376974041e+12,1.589376974084e+12,1.589376974123e+12,1.589376974164e+12,1.589376974206e+12,1.589376974247e+12,1.589376974289e+12,1.589376974331e+12,1.589376974372e+12,1.589376974413e+12,1.589376974454e+12,1.589376974497e+12,1.589376974537e+12,1.589376974579e+12,1.589376974621e+12,1.589376974666e+12,1.589376974712e+12,1.589376974753e+12,1.589376974795e+12,1.589376974836e+12,1.589376974877e+12,1.589376974918e+12,1.589376974961e+12,1.589376975001e+12,1.589376975042e+12,1.589376975084e+12,1.589376975125e+12,1.589376975166e+12,1.589376975211e+12,1.589376975252e+12,1.589376975296e+12,1.58937697534e+12,1.589376975384e+12,1.589376975426e+12,1.589376975468e+12,1.58937697551e+12,1.589376975552e+12,1.589376975594e+12,1.589376975637e+12,1.589376975678e+12,1.589376975719e+12,1.58937697576e+12,1.589376975801e+12,1.589376975845e+12,1.589376975889e+12,1.589376975931e+12,1.589376975974e+12,1.589376976016e+12,1.589376976059e+12,1.589376976101e+12,1.589376976146e+12,1.589376976188e+12,1.589376976229e+12,1.589376976272e+12,1.589376976312e+12,1.589376976353e+12,1.589376976395e+12,1.58937697644e+12,1.589376976482e+12,1.589376976523e+12,1.589376976564e+12,1.589376976608e+12,1.589376976649e+12,1.58937697669e+12,1.589376976731e+12,1.589376976776e+12,1.589376976819e+12,1.589376976862e+12,1.589376976906e+12,1.589376976947e+12,1.589376976988e+12,1.58937697703e+12,1.589376977072e+12,1.589376977115e+12,1.589376977157e+12,1.5893769772e+12,1.589376977241e+12,1.589376977281e+12,1.589376977305e+12,1.589376977346e+12,1.589376977388e+12,1.58937697743e+12,1.589376977472e+12,1.589376977514e+12,1.589376977556e+12,1.589376977599e+12,1.589376977641e+12,1.589376977663e+12,1.589376977705e+12,1.589376977747e+12,1.589376977789e+12,1.589376977832e+12,1.589376977874e+12,1.589376977915e+12,1.589376977957e+12,1.589376977998e+12,1.589376978039e+12,1.589376978081e+12,1.589376978123e+12,1.589376978168e+12,1.589376978209e+12,1.58937697825e+12]","{""avatarUrl"":""https://wx.qlogo.cn/mmopen/vi_32/TkutvetqnTpaBg7Z3rYt4LoiaJFw9u5vSUEYpickKhs1N1RSxUuqqZoPAziaS0foakJh5ibdxxxQXWlUtdtuAxVfug/132"",""nickName"":""Simplify"",""gender"":1.0,""language"":""zh_CN"",""city"":""Wuxi"",""province"":""Jiangsu"",""country"":""China""}"
"[-4.692231,-3.9429016,-2.9881265,-2.051963,-1.2733428,-0.80010206,-0.7270386,-0.5321516,-0.364906,-0.33658838,-0.7739574,-0.972134,-1.5721986,-2.4643412,-3.2893264,-3.1144896,-4.052993,-0.903927,-1.7314627,-0.60508853,-0.32839638,-0.8098148,-0.660859,-0.4674305,-0.30438346,-0.5060308,-0.5593468,-0.27209717,-0.64259994,-2.0838788,-2.9636261,-3.7281318,-3.453221,-3.164651,-2.430715,-1.9642127,-1.0896624,-0.90308607,-0.5355121,-0.37010816,-0.66593766,-0.8420943,-1.3954556,-1.5587852,-2.590845,-2.9760962,-2.876029,-2.9281154,-1.7039496,-1.422559,-0.43025526,-0.47370237,-1.3451008,-0.63782203,-0.54724365,-0.5472877,-0.6713639,-0.5345132,-0.6436227,-0.6590538,-0.92461383,-2.3448246,-3.4473515,-3.4569714,-2.962949,-2.7036242,-2.2680666,-1.3355364,-1.0753624,-0.4203797,-0.67543304,-0.3437365,-0.5740817,-0.41645226,-0.79404557,-0.95534295,-1.4558461,-1.4520173,-3.9714005,-3.3820453,-2.7479565,-1.8905805,-1.8482059,-1.1401465,-0.93967247,-1.50837,-1.3700311,-0.89735353,-0.16092196,-0.5013104,-0.6082211,-0.41075405,-0.451873,-1.3205783,-2.7855167,-4.932803,-4.508359,-2.284373,-1.8505857,-1.2363236,-0.7761303,-0.91271275,-0.4720973,-0.5419295,-0.5761331,-0.94922817,-0.9005569,-1.5541587,-1.3484173,-2.8599944,-3.2813683,-3.3564792,-2.8116968,-1.5850803,-1.2622145,-0.039935283,-0.26077455,-0.68935865,-1.1918585,-0.9019044,-0.58080745,-0.47657833,-0.64916956,-0.71919614,-1.4474328,-2.0343015,-2.6280904,-3.3062065,-2.704061,-2.5020576,-1.7422731,-0.946811,-0.7676692,-0.705689,-0.52352285,-0.56729174,-0.5696639,-0.9052841,-0.9847064,-1.3399016,-1.2465335,-3.9077442]","[1.177634,1.342881,1.2904718,1.0101999,0.79340684,0.30631033,-0.086717986,-0.51958585,-0.36800605,-0.11736472,0.20679867,0.3415702,0.7762816,0.88029146,0.9026151,1.1949546,0.8672363,0.48864985,0.13485771,-0.35685483,-0.5874605,-0.7325865,-1.1165551,-1.0942105,-0.9318396,-0.7924118,-0.6924395,-0.6705086,-0.51820767,-0.5654999,0.020128531,0.55262196,0.846947,0.7563216,0.75820917,0.47129288,0.21223736,0.031623576,-0.07198598,-0.23366067,-0.16493176,0.07179062,0.17870513,0.49428868,0.5719288,0.6999707,1.0251262,1.408145,-0.18557265,-0.07627352,-0.40797195,-0.504238,-0.8718611,-1.3764188,-1.2004306,-1.0436401,-0.8156432,-0.67032576,-0.46931332,-0.27851653,-0.14000238,0.44136435,0.49460855,0.8560276,0.8095878,0.39047226,0.5257006,0.43949786,0.09022022,-0.19454421,-0.3725732,-0.46720067,-0.405935,-0.39503273,-0.114167035,0.1112959,0.42339927,0.6668551,1.4743187,1.046067,1.3549285,0.7561674,-0.23235056,0.0064787106,-0.6329216,-1.2522576,-1.5989637,-1.6463487,-0.9022989,-0.51291656,-0.30627012,-0.21620695,-0.42207092,-0.8605968,-0.24092181,0.5170442,1.4284314,1.0277245,0.9223136,0.4080898,0.05123496,-0.12964411,-0.30386347,-0.41218862,-0.44981495,-0.102309026,0.058996957,0.4094037,0.67026925,1.2795533,1.1906691,1.105265,0.8081552,-0.9889547,-0.17474703,-0.41505113,-0.69303334,-1.0207736,-1.1958271,-1.1034024,-0.7767662,-0.5310952,-0.3741017,-0.57424355,-0.28332505,0.0012047623,0.48933077,0.7820957,1.0050304,0.4690854,0.47522512,0.20699307,-0.010298898,-0.16698791,-0.3067959,-0.5289587,-0.49334535,-0.3353357,0.16410433,0.4316631,0.5628404,0.86385]","[0.03449853,-0.05965776,0.43075424,0.076488994,0.008867165,-0.045840345,0.30459225,-0.0010352528,0.35857767,0.34979862,0.51266944,-0.040178534,0.3615532,-0.6773417,0.8863603,-0.098037764,0.89401406,-0.09188467,-3.3655972,-0.94358075,-0.72758734,0.07553515,0.40328318,-0.1616996,-0.66321117,-0.76169705,-0.40734848,-0.5785521,-0.31930512,-0.05017385,-0.54793125,-0.78025025,0.42703462,-0.13810714,0.021989306,-0.10656305,-0.052800767,0.34243596,-0.068756685,0.081894144,0.2005527,0.160785,0.02498206,-0.023243867,0.20141461,0.5657729,0.104916796,-1.4794519,-1.1459091,-0.090022944,0.6403867,-0.61757284,-1.2742219,-0.18699864,-0.034688152,0.076677665,0.07313807,-0.224194,-0.33724245,-0.6246137,-0.54381424,-0.26446736,-0.5236157,-0.49842682,-0.26572573,0.5826376,0.04968256,0.17004004,0.5911284,0.12641959,0.004061524,-0.051147807,0.17726478,0.13587573,0.17571428,0.4505054,-0.24768782,0.32414237,-0.2764824,1.0465124,-0.31630757,-1.027782,-0.9993188,0.08176295,-0.8767231,-0.35348952,0.114609465,-0.15868959,-0.94499815,-0.6012539,-0.2807345,-0.23721461,-0.061112475,-0.53884286,-0.20043874,-0.6360159,-0.2856062,0.2764891,-0.22723754,0.15234211,0.57689536,0.5213135,-0.12412882,-0.047689624,0.39380404,0.36460817,-0.31541598,0.30038613,-0.36094984,0.012016976,-0.45379415,0.6199556,-0.8304939,-0.38320538,0.53578216,-0.1320019,-0.6026148,-0.35658568,0.21917097,0.19764134,-0.62839466,-0.77081615,-0.56047976,-0.3219435,-0.287219,-0.237138,0.013657485,0.22242324,-0.19342852,0.28451064,-0.21546952,0.28768823,0.46916586,-0.106894396,-0.362757,0.033422098,0.3207713,0.112162605,0.033939246,-0.15809488,-0.4830187,0.5618483]","[2.7308118,2.0584762,-0.16114625,-0.9135053,-0.19477874,0.4008847,0.21327923,1.0192374,0.8602379,0.6703635,-0.98000234,-0.15336208,-1.1720759,3.1490974,-0.5264611,-1.1372565,-7.1067886,-10.159056,0.61282,1.5473042,2.3975065,1.0930648,-1.4898828,-1.7233555,-0.2585531,1.1862829,1.250092,1.9357796,1.9044509,0.7482401,1.5761371,2.824187,0.55047685,-0.20898573,-0.88184506,0.08248426,0.36267942,-0.6536083,0.23270474,0.7165624,0.19776326,0.05078908,0.3494498,0.87971574,1.4544876,-2.2439175,-4.638928,-2.051652,-0.028204521,-0.7556054,-4.2470493,-2.950479,1.2219225,1.1637506,1.3682159,0.87037826,0.0371057,0.071157075,0.060178954,0.91617566,1.2989787,0.39875537,0.22350687,1.8028728,2.202431,-0.2364572,-0.13137093,0.81437063,-0.5742308,-0.38533378,0.21514674,0.71762705,0.447101,0.7304726,0.40224603,-1.0655235,0.110915676,-0.56887263,3.2627358,-2.5130124,-4.173187,-2.6785393,-1.7037729,-3.8353958,-1.6182867,-1.0327462,-2.2725582,-2.0797343,1.7093929,2.814483,2.7227485,2.0780587,0.68662995,0.22373375,-0.6912202,0.9081646,2.0508142,-0.5219058,0.9123883,1.2078551,-0.06686357,-1.2197932,0.23771384,1.2942489,0.15132004,-0.8007221,0.78476983,0.030159289,1.5987566,1.2057258,1.4568089,-2.329229,-0.9815906,-1.3765063,-3.7506776,-3.7472568,-1.1518824,0.52735126,-0.56059974,-1.7187479,0.10398672,1.874152,2.5107608,1.650139,0.81327105,0.25509733,-0.8491376,-0.5391148,1.206773,0.2256187,1.3756685,0.42469096,-1.476025,-1.0310533,0.61512387,0.5984385,-0.158249,-0.078155845,-0.92156875,-0.4763178,1.8092955,0.35800195]","[1.5980583,0.0834791,0.53452456,0.96148443,1.2135624,-0.43160248,-0.7806858,-0.5375963,0.6510951,-0.18329448,0.93549645,0.19275416,0.81503385,-1.8641512,1.1817275,2.8735623,1.0839891,-0.49743629,-2.211559,-1.2349426,-2.5146878,-0.8336391,0.6627888,0.57087976,-0.10016444,-0.001972222,0.68226665,0.36786306,0.61369264,1.1309035,0.61538565,-0.8568345,0.92327917,-0.59367377,0.85905105,0.98061323,-0.3112969,0.7741757,0.05956809,-0.3453832,0.10035643,-0.18613936,0.04605924,-0.6214768,0.7110646,-0.027384216,0.23326325,-1.3100092,-0.8084016,1.6037133,1.5637801,-0.8929977,-0.42697734,-0.2988527,-0.5789432,-1.176282,-0.79817396,-0.61355305,-0.3472507,-0.09101892,0.33044317,-0.5620833,0.9468411,1.9768298,-0.045954518,1.1697197,1.3418441,1.1417246,0.07180285,-0.053075463,0.14388494,-0.27947956,0.23092452,-0.18486528,-0.6507286,0.7948927,-0.16589354,-0.8864178,-0.49799478,2.8938606,1.062347,0.1298874,0.90128803,2.1104696,-0.24787165,0.4001691,0.7849095,1.4506129,-1.2210498,-1.6947322,-1.5698014,-0.9533512,0.0016929694,0.6244788,1.4138912,1.4182371,2.1980677,1.1070274,0.8927708,0.2719572,0.36929423,0.3569722,0.39154717,-0.34650022,0.114964835,0.3593284,-0.29019588,0.7045894,-1.1017041,0.16589354,0.62594485,1.7126043,-0.6465049,0.90512776,2.4166179,1.1211821,-0.41201988,-1.5121533,-0.76607734,0.25097835,-0.39536944,-0.75766486,-1.0812664,-0.7528652,0.6019117,0.68765974,1.1427369,2.597626,0.25710446,0.22029546,-0.08758062,0.1707281,0.72928584,0.746425,0.0061086523,0.23226842,0.8339532,-0.31934288,0.107041046,-0.31047663,-2.1795845,0.95404935]","[-7.4538474,-7.3161235,-6.3976965,-4.720435,-3.0243938,-1.2040503,-0.24375269,0.40929717,0.38950512,1.4578211,2.8804564,3.657442,5.172615,5.496827,5.1825457,6.1120734,2.2012093,3.7456336,1.3276545,1.9846838,2.940391,2.0759645,0.9932145,-0.13021901,-0.5271593,-1.2711582,-2.145603,-2.372967,-2.92491,-4.4325256,-4.7278876,-5.7117124,-5.9068923,-5.779064,-4.595679,-4.204655,-2.4320464,-1.3714099,-0.32035518,0.617672,1.894677,2.8960946,3.354453,4.942249,5.529325,5.0359554,5.327059,5.1756167,2.9101794,1.7152921,2.6010816,3.3696198,1.2752947,0.5236686,-0.0060562924,-0.7831292,-1.5989834,-2.0325232,-2.6667583,-3.1755219,-3.3630924,-3.6707242,-4.6155405,-5.65916,-5.3420687,-5.1255608,-4.5212407,-3.7835248,-1.992433,-0.40540507,-0.2398257,0.54293704,0.8137947,1.6500517,2.0326977,3.0104835,3.573003,6.135007,5.4778204,5.372106,5.2400193,5.139942,2.8957455,3.5331397,3.252456,1.6065058,0.028972466,-1.1758807,-1.4944905,-2.0073555,-2.5801377,-2.6450813,-2.7114563,-4.279443,-5.0781226,-6.881135,-8.176047,-4.975148,-3.757886,-2.7577772,-1.3725793,-1.024997,0.19917697,0.7494269,1.6061741,2.2208443,3.0902276,3.6163397,5.9904585,6.2633758,6.095248,5.078018,5.442652,3.6605663,1.1305021,2.424716,2.6002963,2.1661108,0.37997562,-0.66306806,-1.8639767,-2.231002,-2.987707,-3.307399,-4.4435387,-5.6369247,-5.4104333,-6.0875163,-5.2812266,-4.290456,-3.8874242,-2.8194222,-1.6808219,-0.9385857,0.043493606,0.7931998,1.7209644,1.8345156,3.151122,3.9162395,6.6799335,4.2652183]",1,74,175,"[1.589377005321e+12,1.589377005363e+12,1.589377005406e+12,1.589377005447e+12,1.589377005491e+12,1.589377005533e+12,1.589377005576e+12,1.589377005618e+12,1.589377005661e+12,1.589377005703e+12,1.589377005743e+12,1.589377005785e+12,1.589377005826e+12,1.589377005869e+12,1.589377005911e+12,1.589377005952e+12,1.589377005993e+12,1.589377006035e+12,1.589377006077e+12,1.589377006119e+12,1.589377006162e+12,1.589377006208e+12,1.589377006246e+12,1.589377006288e+12,1.58937700633e+12,1.589377006373e+12,1.589377006415e+12,1.589377006458e+12,1.589377006501e+12,1.589377006542e+12,1.589377006585e+12,1.589377006626e+12,1.589377006669e+12,1.58937700671e+12,1.589377006753e+12,1.589377006794e+12,1.589377006837e+12,1.589377006878e+12,1.589377006921e+12,1.589377006961e+12,1.589377007003e+12,1.589377007045e+12,1.589377007088e+12,1.589377007129e+12,1.589377007173e+12,1.589377007214e+12,1.589377007257e+12,1.589377007299e+12,1.589377007341e+12,1.589377007384e+12,1.589377007425e+12,1.589377007467e+12,1.589377007508e+12,1.58937700755e+12,1.589377007592e+12,1.589377007633e+12,1.589377007675e+12,1.589377007717e+12,1.58937700776e+12,1.589377007804e+12,1.589377007848e+12,1.58937700789e+12,1.589377007933e+12,1.589377007975e+12,1.589377008015e+12,1.589377008058e+12,1.589377008099e+12,1.589377008141e+12,1.589377008183e+12,1.589377008224e+12,1.589377008265e+12,1.589377008306e+12,1.58937700835e+12,1.589377008391e+12,1.589377008433e+12,1.589377008474e+12,1.589377008515e+12,1.589377008558e+12,1.589377008604e+12,1.589377008645e+12,1.589377008688e+12,1.589377008731e+12,1.589377008773e+12,1.589377008814e+12,1.589377008856e+12,1.589377008898e+12,1.589377008938e+12,1.58937700898e+12,1.589377009023e+12,1.589377009065e+12,1.589377009109e+12,1.589377009151e+12,1.589377009193e+12,1.589377009234e+12,1.589377009276e+12,1.589377009319e+12,1.589377009362e+12,1.589377009402e+12,1.589377009443e+12,1.589377009485e+12,1.589377009528e+12,1.589377009578e+12,1.589377009619e+12,1.589377009661e+12,1.589377009703e+12,1.589377009746e+12,1.589377009788e+12,1.589377009829e+12,1.589377009874e+12,1.589377009913e+12,1.589377009956e+12,1.589377009998e+12,1.58937701004e+12,1.589377010081e+12,1.589377010124e+12,1.589377010166e+12,1.589377010209e+12,1.589377010251e+12,1.589377010292e+12,1.589377010334e+12,1.589377010383e+12,1.589377010425e+12,1.589377010466e+12,1.589377010507e+12,1.589377010549e+12,1.589377010591e+12,1.589377010635e+12,1.589377010677e+12,1.589377010719e+12,1.589377010761e+12,1.589377010802e+12,1.589377010845e+12,1.589377010886e+12,1.589377010928e+12,1.589377010974e+12,1.589377011016e+12,1.589377011057e+12,1.589377011099e+12,1.589377011142e+12,1.589377011184e+12,1.589377011225e+12,1.589377011271e+12]","[1.589377005321e+12,1.589377005363e+12,1.589377005406e+12,1.589377005447e+12,1.589377005491e+12,1.589377005533e+12,1.589377005576e+12,1.589377005618e+12,1.589377005661e+12,1.589377005703e+12,1.589377005743e+12,1.589377005785e+12,1.589377005826e+12,1.589377005869e+12,1.589377005911e+12,1.589377005952e+12,1.589377005993e+12,1.589377006035e+12,1.589377006077e+12,1.589377006119e+12,1.589377006162e+12,1.589377006208e+12,1.589377006246e+12,1.589377006288e+12,1.58937700633e+12,1.589377006373e+12,1.589377006415e+12,1.589377006458e+12,1.589377006501e+12,1.589377006542e+12,1.589377006585e+12,1.589377006626e+12,1.589377006669e+12,1.58937700671e+12,1.589377006753e+12,1.589377006794e+12,1.589377006837e+12,1.589377006878e+12,1.589377006921e+12,1.589377006961e+12,1.589377007003e+12,1.589377007045e+12,1.589377007088e+12,1.589377007129e+12,1.589377007173e+12,1.589377007214e+12,1.589377007257e+12,1.589377007299e+12,1.589377007341e+12,1.589377007384e+12,1.589377007425e+12,1.589377007467e+12,1.589377007508e+12,1.58937700755e+12,1.589377007592e+12,1.589377007633e+12,1.589377007675e+12,1.589377007717e+12,1.58937700776e+12,1.589377007804e+12,1.589377007848e+12,1.58937700789e+12,1.589377007933e+12,1.589377007975e+12,1.589377008015e+12,1.589377008058e+12,1.589377008099e+12,1.589377008141e+12,1.589377008183e+12,1.589377008224e+12,1.589377008265e+12,1.589377008306e+12,1.58937700835e+12,1.589377008391e+12,1.589377008433e+12,1.589377008474e+12,1.589377008515e+12,1.589377008558e+12,1.589377008604e+12,1.589377008645e+12,1.589377008688e+12,1.589377008731e+12,1.589377008773e+12,1.589377008814e+12,1.589377008856e+12,1.589377008898e+12,1.589377008938e+12,1.58937700898e+12,1.589377009023e+12,1.589377009065e+12,1.589377009109e+12,1.589377009151e+12,1.589377009193e+12,1.589377009234e+12,1.589377009276e+12,1.589377009319e+12,1.589377009362e+12,1.589377009402e+12,1.589377009443e+12,1.589377009485e+12,1.589377009528e+12,1.589377009578e+12,1.589377009619e+12,1.589377009661e+12,1.589377009703e+12,1.589377009746e+12,1.589377009788e+12,1.589377009829e+12,1.589377009874e+12,1.589377009913e+12,1.589377009956e+12,1.589377009998e+12,1.58937701004e+12,1.589377010081e+12,1.589377010124e+12,1.589377010166e+12,1.589377010209e+12,1.589377010251e+12,1.589377010292e+12,1.589377010334e+12,1.589377010383e+12,1.589377010425e+12,1.589377010466e+12,1.589377010507e+12,1.589377010549e+12,1.589377010591e+12,1.589377010635e+12,1.589377010677e+12,1.589377010719e+12,1.589377010761e+12,1.589377010802e+12,1.589377010845e+12,1.589377010886e+12,1.589377010928e+12,1.589377010974e+12,1.589377011016e+12,1.589377011057e+12,1.589377011099e+12,1.589377011142e+12,1.589377011184e+12,1.589377011225e+12,1.589377011271e+12]","{""language"":""zh_CN"",""city"":""Wuxi"",""province"":""Jiangsu"",""country"":""China"",""avatarUrl"":""https://wx.qlogo.cn/mmopen/vi_32/TkutvetqnTpaBg7Z3rYt4LoiaJFw9u5vSUEYpickKhs1N1RSxUuqqZoPAziaS0foakJh5ibdxxxQXWlUtdtuAxVfug/132"",""nickName"":""Simplify"",""gender"":1.0}"
"[-2.580459,-2.044632,-0.74703693,-0.7742647,-0.41456658,-0.066897824,-0.2137936,-0.42506275,-0.982996,-1.403235,-1.7924986,-4.271033,-3.0953007,-3.2671707,-1.9335659,-1.8301575,-0.94464,-1.8201602,-1.6005497,-0.78685343,-0.31530198,-0.44704437,-0.5856332,-0.77745473,-0.43369237,-1.0198476,-1.616382,-4.0924864,-4.128023,-3.7964272,-2.3314173,-1.8322817,-1.1577258,-0.46783566,-0.32929468,-0.031341057,-0.24915595,-0.60373056,-1.1986648,-1.6418431,-2.9471014,-3.827205,-3.3722599,-4.080399,-2.8623407,-1.1572546,-0.52179134,-0.54833156,-1.0686443,-0.79896045,-0.692905,-0.6313453,-0.47871774,-0.41940957,-0.34530902,-1.3345921,-2.5244377,-3.1798313,-4.110677,-3.205225,-3.1036658,-2.5661907,-0.9991971,-0.43997192,-0.010072885,-0.048833095,-0.33563164,-1.2331958,-1.2773975,-2.4143455,-2.8941226,-4.2941666,-3.6114433,-3.1038384,-2.1039727,-1.3941005,-0.93120176,-1.2303793,-0.89574164,-0.61974204,-0.7881415,-0.8159114,-0.5404077,-0.39956257,-1.0066249,-2.3505151,-4.0532055,-3.890571,-3.438617,-2.4364383,-1.6967976,-1.5010217,-0.65255976,-0.3118936,-0.4705277,-0.38195658,-0.6343188,-1.204655,-1.9141996,-3.095816,-3.118058,-4.029975,-3.098932,-2.9027858,-2.218001,-1.2789414,-1.3246534,-1.2630688,-1.1190174,-0.8369363,-0.5846765,-0.60076463,-0.4121963,-0.3632569,-1.3483033,-2.6034598,-4.1268263,-4.686713,-4.4567204,-3.1777263,-2.2805028,-0.73396647,-0.716234,-0.55130136,-0.09253877,-0.101996824,-0.7670505,-1.1706276,-2.2059407,-3.2284553,-4.282062,-5.0456414,-2.9169345,-2.2088206,-1.2431452,-1.0762483,-0.32788306,-0.5861436,-1.0825479,-0.9945141,-0.524582,-0.5419448,-0.27601892]","[0.23146279,0.17203967,0.14731714,-0.028578151,-0.33406487,-0.64035606,-0.8784739,-0.7749418,-0.20634285,0.46182328,-0.12936446,0.99297017,0.93809605,1.1181439,-0.0185723,0.068885975,-0.02010938,-0.9042469,-1.4413191,-1.3746328,-1.3285588,-0.98941725,-0.81647456,-0.74078614,-0.736716,-0.7403753,-0.96550685,0.35465404,0.3259265,0.8069331,0.29961136,0.27825412,0.08710776,-0.13085078,-0.3148749,-0.4649856,-0.31279767,-0.3313058,0.1150615,0.6587196,0.73965895,0.9068575,1.0487235,1.2642486,0.16741502,-0.49510175,-0.7844382,-1.1396811,-1.6686293,-1.8614008,-1.4757888,-0.9295403,-0.5595709,-0.4786871,-0.59920067,-0.5924941,-0.7219342,-0.26383623,-0.010109277,0.65285766,0.08525082,0.42289743,0.1975523,-0.0058064177,-0.2967,-0.15473342,-0.16027647,0.09504215,0.3524782,0.7587292,0.9761524,1.2940199,1.3982694,0.28111857,-0.4858927,-0.55048156,-1.0477189,-1.7421955,-2.2236962,-1.9893163,-1.3883363,-0.7008221,-0.3435804,-0.24362533,-0.34112778,-0.24362822,-0.19542529,0.7329341,0.9482773,0.3545813,0.10470897,0.020202274,-0.19731286,-0.26353073,-0.3138329,-0.17989649,0.12629701,0.7074004,0.8736499,1.4457242,1.4966452,1.8847568,1.293569,0.7522888,0.05061055,-0.50576556,-1.0167773,-1.5952356,-1.7447392,-1.4264041,-0.918275,-0.52993643,-0.4899992,-0.47033516,-0.26028994,-0.06621979,0.778355,1.3686731,1.5400875,1.4297597,1.1497569,0.74759614,0.5405782,0.5174684,0.36897522,0.37649876,0.54184234,0.6578682,1.2908779,1.1975117,1.6029832,1.1481308,0.53036356,0.02050107,-0.61002344,-0.55831635,-0.81299144,-1.3184898,-1.6942816,-1.3793944,-0.9464509,-0.6566127,-0.5778866]","[0.49263573,-0.02533257,0.13597628,0.1486761,0.48722965,0.39449164,0.39637926,0.18485153,0.74973947,-0.46678695,0.10155916,-0.28497705,0.34439537,-0.8080584,-1.6862047,0.7095322,-0.097761,-0.84389865,0.38467926,-0.100542106,-0.5025468,-0.9123441,-0.3311564,-0.122498855,0.067472436,-1.1832604,-1.2841243,-1.1511016,-0.756178,-0.6615716,0.1293635,0.06825965,0.054842543,0.27753586,0.007676768,-0.020260692,0.06659424,0.24913773,0.13430896,-0.25651476,-0.69264925,-0.1227172,-0.34985033,-0.49121934,-1.6533428,-0.24006565,0.3134374,-0.32805163,-0.64833254,-0.35455158,-0.40549833,-0.5141931,-0.42219836,-0.3031433,-0.39457306,-0.57708687,-0.7581163,-0.82394344,-1.198071,-0.06864559,0.10661763,0.2749769,0.17076787,0.29171145,0.19273707,0.5114829,0.3389069,0.17225514,0.27551037,-1.0207132,0.82145727,-1.1042068,-0.9279351,-1.7437584,-0.7679507,0.091707505,-0.615442,-0.75514275,-0.99473333,-0.45990887,-0.14335617,-0.52115834,-0.77598566,-0.5024549,-0.7545192,-0.1283273,-0.40956268,-0.3077871,-0.17053036,0.24094383,-0.1839379,0.41296434,-0.006819644,0.2365998,0.11695866,0.46375114,0.46166626,0.05801438,-0.48741347,0.6287978,0.30037558,-0.7993828,0.026097756,-0.76585245,-0.74716717,0.1997923,-1.0845006,-1.5575671,-0.97450334,-0.049345456,-0.42864352,-0.6170413,-0.42198667,-0.16746292,-0.36741516,-0.18137036,-0.44342723,-0.2629954,0.33632022,0.96972066,0.2274032,-0.022884738,0.2891832,0.4713417,0.112258375,0.5874299,0.14023127,0.446011,-0.35013095,0.18583314,-0.21934238,-0.27473176,-1.3414894,-0.6030151,-0.7624699,0.46895996,0.014291468,-1.4874763,-1.172004,-0.44313416,-0.62991923,-0.718814,-0.7660967]","[-0.12002629,0.124511786,-0.017086774,0.30639255,-0.40114647,-0.6183702,-0.6715678,0.36316812,-1.4017262,0.28530896,2.814483,1.6644682,-1.7029003,-2.4343503,1.5983027,-2.9328513,-4.3877053,-0.46155232,-3.3629005,-3.1828172,-1.5532033,1.5776554,3.0609062,2.287568,0.45657814,1.9217995,1.6298409,1.5192218,0.7247654,3.3939672,2.4072628,1.2762895,0.73412037,-0.7501425,-0.87247264,-0.11419689,0.30302405,-0.23710299,-0.26598817,0.24288002,2.1953974,-0.1749169,-2.2320492,-4.657778,-1.7158681,-0.8520174,-4.066373,-3.2658775,-0.91212654,-0.24921556,0.48848274,1.3639748,1.8715689,2.0122774,1.4216754,0.32335714,-0.99960244,-0.52866024,3.806179,3.5901248,1.7997835,0.29208085,-0.33653438,-0.38885936,0.2745403,-0.15322246,-0.22771311,-0.33437017,-1.8405195,2.3809607,-2.1570175,-0.75783944,-4.813182,-1.3124177,-1.5411955,-3.6716666,-2.7657883,-1.5366926,0.9928305,1.7094977,0.4111472,0.64617324,2.0442169,2.1476974,3.07438,0.78155845,-1.2028285,0.7739139,1.603626,0.31820843,1.2707742,-0.5750336,0.26722735,-1.2944409,-0.03663446,-0.093322754,-0.66320765,0.16674876,4.852347,1.3057855,-2.0399933,-0.09161233,-3.7536447,-3.7957072,-1.2763244,-4.0344505,-3.1722581,0.83084655,2.781601,1.1461054,0.96914643,1.8171321,1.9127238,0.81864667,0.64057076,-1.5868185,-0.4576777,1.9411552,3.654929,-0.62587506,0.028029988,1.7824873,0.88338095,-0.37562975,0.050440013,-1.0032501,-0.25804693,-0.9607863,1.3502566,0.85039425,1.2627108,-2.0934002,-2.0428207,-2.8282886,-1.4794458,-3.8463216,-5.8118415,-0.9525658,1.1902796,0.72052425,1.1569787,1.9290426,3.0179186]","[0.19041543,0.74497634,-1.1538895,0.81803584,-1.0912845,0.010210176,-0.15915658,1.2829915,-0.7612079,-0.082920596,1.2512789,-2.65208,-0.121789075,0.16250761,0.6895272,3.3179932,1.6230166,0.8774119,2.7375488,2.0495925,0.9556725,-0.12623966,-0.8636587,-0.8542339,-0.3983714,-1.0346836,0.13049826,2.102162,4.0158806,3.4797328,1.0761002,1.056378,0.0109083075,0.13973106,0.837217,0.62097067,-0.47253045,-1.2548568,-0.81559235,-3.2341475,0.46266934,-0.46832418,-0.6362074,-0.02586578,1.7093755,2.5146704,2.5274985,-0.7657807,-1.0010335,-0.85021967,-0.59576815,-0.48399726,-0.6756344,-0.3877598,-0.9042376,0.2555162,0.6635218,3.226852,3.088133,0.5453107,-0.2735978,-0.084177226,0.3928038,0.05256932,0.0970403,0.6102893,0.12814207,0.1153139,0.4517261,-1.0730284,1.3232738,-0.944642,-2.1757972,-0.70837677,1.0618583,0.8725599,-1.1135724,0.012863076,0.24562019,-1.3802413,-1.3425596,-0.2894105,-0.21436134,0.17172295,0.019006636,-0.15234978,0.49258426,3.7982728,1.3029406,2.1021268,0.14802137,0.06689847,-0.41149628,-0.60582125,0.24720843,-0.37006217,-0.33297393,-2.505839,-3.3502467,0.23495622,1.3495234,0.3883183,1.3094857,1.384465,2.0039346,2.2408457,0.92717123,-1.6348848,-1.095264,-0.9835105,-1.4380989,-0.9219178,-0.74104935,-0.98691386,-1.955589,0.98556995,2.3002915,3.6711953,1.0702534,1.3706595,2.1062808,0.0027576203,-1.3183169,0.4293859,0.56733674,1.3166065,-0.17643534,-0.857009,-1.5084008,-0.8917411,2.1320243,3.0503294,-1.1444124,0.9735621,2.1022317,2.210791,-0.11515682,-2.450355,-2.4059014,-0.60369194,-0.30445522,-0.5558001,-0.6043726]","[-6.1882567,-4.981414,-2.4530778,-1.3553703,-0.9745046,0.39760345,0.99771744,2.3037474,2.533991,5.4280787,8.789338,5.5072117,6.6429324,6.637138,5.3373218,3.9256294,5.0215917,2.2456279,0.21753784,-0.48952994,-0.8661371,-0.90257955,-2.1285162,-3.20048,-3.1153603,-4.158945,-5.094616,-7.1427774,-6.7313857,-6.528352,-4.9125085,-3.027902,-2.598935,-1.5586662,-0.84261006,0.62641615,1.8868929,3.304013,4.707694,6.2854366,7.7555275,6.6700025,7.639533,6.1350417,3.622588,1.1782544,2.5574658,2.5423338,1.1145673,0.18282324,-0.77201146,-1.9035258,-2.5496469,-2.7230103,-3.1822064,-4.564804,-6.616613,-5.282553,-7.546245,-5.989429,-5.17066,-4.9384613,-2.8125107,-1.2752947,0.24631831,1.7618749,3.229313,3.3975801,5.522763,5.806728,7.657248,5.701013,7.183967,4.900274,3.0094013,2.9866598,3.364733,1.7782288,-0.1452463,-1.0807079,-2.3320217,-3.3145723,-3.2753198,-3.4070222,-3.8703723,-4.9345345,-7.023205,-7.437127,-7.026818,-5.5988593,-4.210869,-3.5716417,-1.7678615,-0.60330796,1.3161877,2.6025827,4.145122,5.3023105,6.745331,6.6217093,8.148384,6.2038603,7.6271763,5.335105,3.2439039,4.076094,2.6903377,0.83028805,-0.27544788,-1.1934037,-1.9066501,-2.641294,-2.9475644,-2.8009741,-3.6721554,-4.5226717,-6.092229,-7.7989864,-7.3799677,-6.5664697,-5.577723,-2.682728,-1.6647124,-1.0029883,0.4483227,2.7291539,4.045865,5.6615686,6.863455,7.7247224,6.772488,3.8115025,4.1746354,4.274957,3.0827227,1.9784354,2.2189069,1.5702727,-0.21144664,-1.4983128,-1.809697,-2.435188,-2.451088]",1,74,175,"[1.589187335139e+12,1.58918733518e+12,1.589187335221e+12,1.589187335263e+12,1.589187335304e+12,1.589187335349e+12,1.589187335391e+12,1.589187335434e+12,1.589187335476e+12,1.589187335519e+12,1.589187335561e+12,1.589187335603e+12,1.589187335645e+12,1.589187335689e+12,1.589187335731e+12,1.589187335773e+12,1.589187335818e+12,1.589187335863e+12,1.589187335905e+12,1.589187335948e+12,1.589187335998e+12,1.589187336039e+12,1.589187336081e+12,1.589187336123e+12,1.589187336167e+12,1.58918733621e+12,1.589187336251e+12,1.589187336292e+12,1.589187336333e+12,1.589187336377e+12,1.589187336419e+12,1.589187336465e+12,1.589187336507e+12,1.589187336548e+12,1.589187336591e+12,1.589187336633e+12,1.589187336676e+12,1.589187336719e+12,1.589187336763e+12,1.589187336805e+12,1.589187336849e+12,1.589187336887e+12,1.58918733693e+12,1.589187336974e+12,1.589187337016e+12,1.589187337059e+12,1.589187337101e+12,1.589187337144e+12,1.589187337185e+12,1.589187337229e+12,1.589187337275e+12,1.589187337315e+12,1.589187337356e+12,1.589187337399e+12,1.589187337441e+12,1.589187337484e+12,1.589187337527e+12,1.589187337569e+12,1.589187337613e+12,1.589187337654e+12,1.589187337695e+12,1.589187337738e+12,1.58918733778e+12,1.589187337821e+12,1.589187337863e+12,1.589187337905e+12,1.589187337947e+12,1.58918733799e+12,1.589187338031e+12,1.589187338074e+12,1.589187338116e+12,1.589187338159e+12,1.589187338202e+12,1.589187338242e+12,1.589187338284e+12,1.589187338326e+12,1.589187338369e+12,1.589187338411e+12,1.589187338453e+12,1.589187338494e+12,1.589187338536e+12,1.589187338577e+12,1.589187338618e+12,1.58918733866e+12,1.589187338702e+12,1.589187338744e+12,1.589187338787e+12,1.589187338828e+12,1.58918733887e+12,1.589187338912e+12,1.589187338954e+12,1.589187338999e+12,1.589187339038e+12,1.58918733908e+12,1.589187339121e+12,1.589187339164e+12,1.589187339206e+12,1.589187339246e+12,1.589187339288e+12,1.589187339329e+12,1.58918733937e+12,1.589187339413e+12,1.589187339453e+12,1.589187339495e+12,1.589187339536e+12,1.589187339579e+12,1.58918733962e+12,1.589187339662e+12,1.589187339703e+12,1.589187339744e+12,1.589187339785e+12,1.589187339826e+12,1.589187339867e+12,1.58918733991e+12,1.589187339951e+12,1.589187339993e+12,1.589187340034e+12,1.589187340076e+12,1.589187340119e+12,1.589187340159e+12,1.589187340199e+12,1.58918734024e+12,1.58918734028e+12,1.589187340322e+12,1.589187340364e+12,1.589187340405e+12,1.589187340447e+12,1.589187340487e+12,1.589187340528e+12,1.589187340569e+12,1.589187340611e+12,1.589187340652e+12,1.589187340695e+12,1.589187340736e+12,1.589187340777e+12,1.589187340818e+12,1.58918734086e+12,1.589187340901e+12,1.589187340942e+12,1.589187340983e+12,1.589187341026e+12,1.589187341067e+12,1.589187341109e+12]","[1.589187335139e+12,1.58918733518e+12,1.589187335221e+12,1.589187335263e+12,1.589187335304e+12,1.589187335349e+12,1.589187335391e+12,1.589187335434e+12,1.589187335476e+12,1.589187335519e+12,1.589187335561e+12,1.589187335603e+12,1.589187335645e+12,1.589187335689e+12,1.589187335731e+12,1.589187335773e+12,1.589187335818e+12,1.589187335863e+12,1.589187335905e+12,1.589187335948e+12,1.589187335998e+12,1.589187336039e+12,1.589187336081e+12,1.589187336123e+12,1.589187336167e+12,1.58918733621e+12,1.589187336251e+12,1.589187336292e+12,1.589187336333e+12,1.589187336377e+12,1.589187336419e+12,1.589187336465e+12,1.589187336507e+12,1.589187336548e+12,1.589187336591e+12,1.589187336633e+12,1.589187336676e+12,1.589187336719e+12,1.589187336763e+12,1.589187336805e+12,1.589187336849e+12,1.589187336887e+12,1.58918733693e+12,1.589187336974e+12,1.589187337016e+12,1.589187337059e+12,1.589187337101e+12,1.589187337144e+12,1.589187337185e+12,1.589187337229e+12,1.589187337275e+12,1.589187337315e+12,1.589187337356e+12,1.589187337399e+12,1.589187337441e+12,1.589187337484e+12,1.589187337527e+12,1.589187337569e+12,1.589187337613e+12,1.589187337654e+12,1.589187337695e+12,1.589187337738e+12,1.58918733778e+12,1.589187337821e+12,1.589187337863e+12,1.589187337905e+12,1.589187337947e+12,1.58918733799e+12,1.589187338031e+12,1.589187338074e+12,1.589187338116e+12,1.589187338159e+12,1.589187338202e+12,1.589187338242e+12,1.589187338284e+12,1.589187338326e+12,1.589187338369e+12,1.589187338411e+12,1.589187338453e+12,1.589187338494e+12,1.589187338536e+12,1.589187338577e+12,1.589187338618e+12,1.58918733866e+12,1.589187338702e+12,1.589187338744e+12,1.589187338787e+12,1.589187338828e+12,1.58918733887e+12,1.589187338912e+12,1.589187338954e+12,1.589187338999e+12,1.589187339038e+12,1.58918733908e+12,1.589187339121e+12,1.589187339164e+12,1.589187339206e+12,1.589187339246e+12,1.589187339288e+12,1.589187339329e+12,1.58918733937e+12,1.589187339413e+12,1.589187339453e+12,1.589187339495e+12,1.589187339536e+12,1.589187339579e+12,1.58918733962e+12,1.589187339662e+12,1.589187339703e+12,1.589187339744e+12,1.589187339785e+12,1.589187339826e+12,1.589187339867e+12,1.58918733991e+12,1.589187339951e+12,1.589187339993e+12,1.589187340034e+12,1.589187340076e+12,1.589187340119e+12,1.589187340159e+12,1.589187340199e+12,1.58918734024e+12,1.58918734028e+12,1.589187340322e+12,1.589187340364e+12,1.589187340405e+12,1.589187340447e+12,1.589187340487e+12,1.589187340528e+12,1.589187340569e+12,1.589187340611e+12,1.589187340652e+12,1.589187340695e+12,1.589187340736e+12,1.589187340777e+12,1.589187340818e+12,1.58918734086e+12,1.589187340901e+12,1.589187340942e+12,1.589187340983e+12,1.589187341026e+12,1.589187341067e+12,1.589187341109e+12]","{""avatarUrl"":""https://wx.qlogo.cn/mmopen/vi_32/TkutvetqnTpaBg7Z3rYt4LoiaJFw9u5vSUEYpickKhs1N1RSxUuqqZoPAziaS0foakJh5ibdxxxQXWlUtdtuAxVfug/132"",""nickName"":""Simplify"",""gender"":1.0,""language"":""zh_CN"",""city"":""Wuxi"",""province"":""Jiangsu"",""country"":""China""}"
