acc_x,acc_y,acc_z,gry_x,gry_y,gry_z,gender,weight,height,times,timeSs_g,userInfo
"[-0.4302825927734375,-0.3066253662109375,-0.36029052734375,-0.42034912109375,-0.5560760498046875,-0.88653564453125,-1.3499603271484375,-1.435455322265625,-1.202484130859375,-1.85589599609375,-2.8595428466796875,-2.8713836669921875,-2.7482757568359375,-3.0192718505859375,-3.551055908203125,-3.604888916015625,-3.0245208740234375,-2.5641632080078125,-1.9328460693359375,-1.804534912109375,-1.80517578125,-1.541900634765625,-1.3204803466796875,-1.0716705322265625,-1.024383544921875,-1.0010986328125,-0.85736083984375,-0.648101806640625,-0.4726104736328125,-0.4454193115234375,-0.41094970703125,-0.4798736572265625,-0.577392578125,-0.7118682861328125,-0.7825164794921875,-0.8006439208984375,-0.8806610107421875,-0.657073974609375,-0.29144287109375,-0.8077545166015625,-1.5135040283203125,-1.8739776611328125,-2.7433624267578125,-3.687591552734375,-3.84173583984375,-3.647003173828125,-3.255279541015625,-2.8163299560546875,-2.5825042724609375,-2.2845458984375,-1.5469207763671875,-1.0732269287109375,-1.48089599609375,-1.4343719482421875,-0.7934112548828125,-0.4096832275390625,-0.448638916015625,-0.552947998046875,-0.1298828125,-0.259124755859375,-0.8341064453125,-0.982879638671875,-0.5695953369140625,-0.5687103271484375,-1.15380859375,-1.34527587890625,-1.308197021484375,-1.9480438232421875,-2.52301025390625,-2.2743988037109375,-2.3082427978515625,-3.31304931640625,-3.783477783203125,-3.51788330078125,-3.3802947998046875,-3.418304443359375,-3.1634521484375,-2.4299468994140625,-1.8032684326171875,-1.6812591552734375,-1.6183929443359375,-1.0868988037109375,-0.541229248046875,-0.335418701171875,-0.5955810546875,-0.7780609130859375,-0.6578369140625,-0.5283355712890625,-0.5685272216796875,-0.6060028076171875,-0.5926666259765625,-0.5868988037109375,-0.5423583984375,-0.49407958984375,-0.540802001953125,-0.3817138671875,-0.329254150390625,-0.6415252685546875,-0.855133056640625,-0.9102630615234375,-1.6705169677734375,-2.448577880859375,-2.8933258056640625,-3.4688720703125,-3.4611968994140625,-3.2222900390625,-3.0932769775390625,-2.884979248046875,-2.5834197998046875,-2.1312408447265625,-1.713623046875,-1.501861572265625,-1.35577392578125,-1.22503662109375,-0.9651947021484375,-0.649749755859375,-0.596466064453125,-0.6826629638671875,-0.4970550537109375,-0.306060791015625,-0.4477081298828125,-0.58917236328125,-0.5564117431640625,-0.7196502685546875,-1.25628662109375,-1.4550628662109375,-1.379913330078125,-1.668914794921875,-2.4427032470703125,-2.5604095458984375,-2.206787109375,-2.5197601318359375,-3.27471923828125,-3.86029052734375,-3.7855987548828125,-3.656768798828125,-3.532379150390625,-3.1466064453125,-2.4415435791015625,-1.7382049560546875,-1.515167236328125,-1.2327423095703125,-0.709259033203125,-0.4781494140625,-0.501556396484375,-0.7464447021484375,-0.8985595703125,-0.830810546875,-0.704620361328125,-0.66558837890625,-0.61114501953125,-0.571258544921875,-0.5139007568359375,-0.4376678466796875,-0.42071533203125,-0.54071044921875,-0.5281524658203125,-0.362152099609375,-0.445709228515625,-0.515411376953125,0.112152099609375,0.3628082275390625,-0.287322998046875,-0.725799560546875,-1.358795166015625,-2.5381622314453125,-3.503173828125,-3.61578369140625,-3.9837799072265625,-3.5481414794921875,-3.0081787109375,-3.01165771484375,-2.9005889892578125,-2.483154296875,-2.0988616943359375,-2.0145263671875,-1.6940155029296875,-0.8704986572265625,-0.3791351318359375,-0.4340972900390625,-0.2554168701171875,-0.3759002685546875,-0.529327392578125,-0.42254638671875,-0.3608856201171875,-0.3871612548828125,-0.5214691162109375,-0.841827392578125,-1.027099609375,-1.046051025390625,-1.2859039306640625,-1.6575469970703125,-2.0442352294921875,-2.0781707763671875,-2.620880126953125,-3.5452423095703125,-3.78863525390625,-3.6798553466796875,-3.596832275390625,-3.633056640625,-3.3181610107421875,-2.92315673828125,-2.075164794921875,-1.4207000732421875,-1.40924072265625,-1.2808990478515625,-1.0309600830078125,-0.541717529296875,-0.4413299560546875,-0.5549163818359375,-0.59564208984375,-0.5851898193359375,-0.5805816650390625,-0.5728302001953125,-0.463958740234375,-0.3087310791015625,-0.269134521484375,-0.2008056640625,-0.0384979248046875,0.070068359375,0.055694580078125,-0.0814056396484375,-0.1556243896484375,0.021728515625,0.1665191650390625,-0.157196044921875,-0.464508056640625,-0.8740386962890625,-1.9282073974609375,-2.8154144287109375,-3.526641845703125,-4.1425018310546875,-4.5408935546875,-4.1172027587890625,-3.227752685546875,-2.93927001953125,-2.947509765625,-2.699462890625,-2.5346832275390625,-2.17266845703125,-1.5285491943359375,-0.834320068359375,-0.5758209228515625,-0.6542510986328125,-0.65576171875,-0.58685302734375,-0.837249755859375,-0.9579620361328125,-0.859344482421875,-0.895355224609375,-0.960205078125,-1.133697509765625,-1.5310516357421875,-1.7615814208984375,-1.8168792724609375,-1.9548797607421875,-2.2952728271484375,-2.72576904296875,-3.0452423095703125,-3.115447998046875,-3.18096923828125,-3.2252960205078125,-3.371185302734375,-3.3871002197265625,-2.9084014892578125,-1.9100341796875,-1.20794677734375,-1.1649169921875,-0.7950439453125,-0.2710418701171875,-0.032562255859375,-0.097808837890625,-0.2802886962890625,-0.5040435791015625,-0.6834869384765625,-0.7347412109375,-0.819122314453125,-0.8389129638671875,-0.7845001220703125,-0.641326904296875,-0.5312042236328125,-0.510650634765625,-0.4820404052734375,-0.4660797119140625,-0.4233856201171875,-0.446990966796875,-0.4805145263671875,-0.5135498046875,-0.658172607421875,-1.2681427001953125,-1.934783935546875,-2.5096282958984375,-3.1456451416015625,-3.8241729736328125,-4.0004119873046875,-3.5430145263671875,-3.301971435546875,-2.9677276611328125,-2.8343353271484375,-2.7716064453125,-2.291473388671875,-1.8938140869140625,-1.7946624755859375,-1.7026519775390625,-1.3247833251953125,-0.7998199462890625,-0.747650146484375,-0.7177276611328125,-0.58392333984375,-0.577911376953125,-0.6146392822265625,-0.6078033447265625,-0.6917572021484375,-0.8747711181640625,-1.0067138671875,-1.018096923828125,-0.9767303466796875,-1.135009765625,-1.774261474609375,-2.2342529296875,-1.9646453857421875,-2.0345306396484375,-3.0152130126953125,-3.6009063720703125,-3.1984100341796875,-3.1588134765625,-3.079925537109375,-3.288177490234375,-3.446197509765625,-2.5330047607421875,-1.6895904541015625,-1.1641082763671875,-0.9195709228515625,-1.0966033935546875,-0.9231719970703125,-0.58087158203125,-0.4690399169921875,-0.503814697265625,-0.528839111328125,-0.5204620361328125,-0.500518798828125,-0.48431396484375,-0.5165252685546875,-0.4933624267578125,-0.4657135009765625,-0.422119140625,-0.3731842041015625,-0.3322296142578125,-0.30511474609375,-0.2425384521484375,-0.2589874267578125,-0.378753662109375,-0.362335205078125,-0.427093505859375,-1.178924560546875,-2.4259490966796875,-3.067474365234375,-3.332794189453125,-3.71685791015625,-4.1452484130859375,-4.039947509765625,-3.4292755126953125,-3.29022216796875,-3.202972412109375,-2.7775421142578125,-2.1832733154296875,-1.700469970703125,-1.4187469482421875,-1.1416778564453125,-0.882781982421875,-0.7740631103515625,-0.8418731689453125,-0.9113616943359375,-0.81695556640625,-0.650054931640625,-0.595855712890625,-0.78448486328125,-0.930755615234375,-0.8509368896484375,-0.864776611328125,-0.9967193603515625,-1.251373291015625,-1.6118316650390625,-1.81390380859375,-1.881866455078125,-2.2292022705078125,-2.847259521484375,-3.006622314453125,-2.8055267333984375,-2.926025390625,-3.106536865234375,-2.88507080078125,-2.4097747802734375,-2.3402099609375,-2.10491943359375,-1.8757781982421875,-1.471649169921875,-1.07135009765625,-0.8278350830078125,-0.6582489013671875,-0.7965240478515625,-1.0565948486328125,-1.219207763671875,-1.135284423828125,-0.997314453125,-0.8029632568359375,-0.568939208984375,-0.390380859375,-0.296661376953125,-0.28656005859375,-0.3829803466796875,-0.4388580322265625,-0.51959228515625,-0.640960693359375,-0.6345367431640625,-0.2536468505859375,-0.2922210693359375,-0.9725494384765625,-1.196075439453125,-1.1130828857421875,-1.8794097900390625,-2.68597412109375,-2.78009033203125,-2.63275146484375,-2.961456298828125,-3.1927947998046875,-2.798309326171875,-2.477508544921875,-2.3258056640625,-2.1967010498046875,-1.8503265380859375,-1.5054168701171875,-1.3146820068359375,-1.03717041015625,-0.896697998046875,-0.94403076171875,-0.9313812255859375,-0.7214202880859375,-0.56158447265625,-0.5292205810546875,-0.5891571044921875,-0.8248443603515625,-1.037200927734375,-1.111328125,-1.2205352783203125,-1.538177490234375,-1.9337005615234375,-2.1408843994140625,-2.0756072998046875,-2.5235748291015625,-3.2023162841796875,-3.4524383544921875,-3.3100433349609375,-3.1531524658203125,-3.044647216796875,-2.8905487060546875,-2.469696044921875,-2.005035400390625,-1.49249267578125,-1.19427490234375,-1.145782470703125,-0.9139862060546875,-0.5094146728515625,-0.25238037109375,-0.2351531982421875,-0.271240234375,-0.273712158203125,-0.5085296630859375,-0.71630859375,-0.791412353515625,-0.72528076171875,-0.4759521484375,-0.1728057861328125,0.0533905029296875,0.036407470703125,-0.035308837890625,-0.1322784423828125,-0.3843841552734375,-0.3176422119140625,-0.45831298828125,-0.9716796875,-1.09185791015625,-1.281402587890625,-2.315948486328125,-3.2030792236328125,-3.5169677734375,-3.7515106201171875,-4.077972412109375,-4.1537322998046875,-3.7765960693359375,-3.46868896484375,-3.2815093994140625,-2.815948486328125,-2.0323944091796875,-1.4695281982421875,-1.3779296875,-1.346343994140625]","[-0.089874267578125,-0.09014892578125,-0.0756988525390625,-0.2353363037109375,-0.196197509765625,-0.1091766357421875,0.1133575439453125,0.2432098388671875,0.36865234375,0.474151611328125,0.86712646484375,0.663421630859375,0.895965576171875,1.204833984375,0.9564208984375,0.7638397216796875,0.3766021728515625,-0.0437469482421875,-0.3749237060546875,-0.0668182373046875,-0.085723876953125,-0.800201416015625,-1.1392822265625,-1.342681884765625,-1.2795257568359375,-1.328704833984375,-1.472747802734375,-1.59490966796875,-1.645538330078125,-1.5676422119140625,-1.5209808349609375,-1.3736724853515625,-1.2092132568359375,-1.0062103271484375,-0.7887115478515625,-0.7075347900390625,-0.647705078125,-0.631866455078125,-1.032867431640625,-0.9250640869140625,-0.5704803466796875,-0.7469329833984375,-0.5792694091796875,-0.0041656494140625,0.348358154296875,0.609222412109375,0.855377197265625,0.7390289306640625,0.442413330078125,0.512542724609375,0.6245269775390625,0.111968994140625,-0.03375244140625,-0.1349945068359375,-0.3121795654296875,-0.5281219482421875,-0.65631103515625,-0.618377685546875,-0.8136138916015625,-0.7054290771484375,-0.500091552734375,-0.37811279296875,-0.3485107421875,-0.256500244140625,0.1714019775390625,0.490814208984375,0.166412353515625,0.3031005859375,0.6031646728515625,0.6758270263671875,0.88128662109375,1.400665283203125,1.3717193603515625,1.1336517333984375,0.8516693115234375,0.5341796875,0.213470458984375,-0.296661376953125,-0.9240570068359375,-0.8753662109375,-0.737548828125,-0.814422607421875,-0.944580078125,-1.1738128662109375,-1.2835693359375,-1.31884765625,-1.38336181640625,-1.3397064208984375,-1.197509765625,-1.150421142578125,-1.09356689453125,-0.9315643310546875,-0.7585296630859375,-0.661407470703125,-0.536956787109375,-0.4529266357421875,-0.639862060546875,-0.716094970703125,-0.6140899658203125,-0.801910400390625,-0.8196563720703125,-0.6488189697265625,-0.088348388671875,0.4161224365234375,0.5474700927734375,0.6048736572265625,0.5073394775390625,0.4856719970703125,0.4130706787109375,0.4782867431640625,0.4152679443359375,0.2282562255859375,0.101898193359375,0.0516357421875,-0.100494384765625,-0.2863311767578125,-0.1751708984375,-0.172088623046875,-0.4478607177734375,-0.591033935546875,-0.382568359375,-0.335601806640625,-0.4790191650390625,-0.3520050048828125,-0.0616302490234375,-0.0810699462890625,-0.1119232177734375,-0.0121002197265625,0.2516326904296875,0.1022796630859375,0.220794677734375,0.636749267578125,0.665802001953125,0.67242431640625,0.6678009033203125,0.81927490234375,0.5581207275390625,0.298797607421875,-0.0437469482421875,-0.8808441162109375,-1.045928955078125,-0.63336181640625,-0.7120819091796875,-0.861572265625,-1.015899658203125,-1.09130859375,-1.184661865234375,-1.3160247802734375,-1.3351287841796875,-1.23297119140625,-1.21435546875,-1.1180267333984375,-0.939788818359375,-0.6949005126953125,-0.5577392578125,-0.4153900146484375,-0.30474853515625,-0.3001251220703125,-0.39044189453125,-0.5590972900390625,-1.0051116943359375,-1.2138824462890625,-0.970733642578125,-0.7363739013671875,-0.5472259521484375,-0.2296142578125,0.2745513916015625,-0.1050567626953125,0.394744873046875,0.7651214599609375,0.5365753173828125,0.5019989013671875,0.58428955078125,0.5193328857421875,0.2275848388671875,0.259979248046875,0.1094512939453125,-0.2864990234375,-0.387603759765625,-0.208831787109375,-0.491119384765625,-0.59716796875,-0.52386474609375,-0.6173858642578125,-0.5777587890625,-0.4065399169921875,-0.338775634765625,-0.186492919921875,-0.0255889892578125,0.1464996337890625,0.3159637451171875,0.233367919921875,0.4450531005859375,0.6008148193359375,0.6200714111328125,0.72607421875,0.794219970703125,1.0866241455078125,1.0424041748046875,1.0817718505859375,0.7527618408203125,-0.3009033203125,-0.808502197265625,-0.8596343994140625,-0.3173980712890625,-0.45501708984375,-0.5688018798828125,-0.9462432861328125,-1.0535888671875,-1.108001708984375,-1.2563934326171875,-1.3246917724609375,-1.3121185302734375,-1.238922119140625,-1.0955657958984375,-0.8763275146484375,-0.6300811767578125,-0.4697418212890625,-0.3814849853515625,-0.352691650390625,-0.3811798095703125,-0.3607025146484375,-0.32232666015625,-0.512542724609375,-0.86126708984375,-0.747039794921875,-0.5810699462890625,-0.7942657470703125,-0.5971527099609375,-0.28125,-0.021636962890625,-0.053955078125,0.180328369140625,0.6404571533203125,0.58319091796875,0.5652313232421875,0.664703369140625,0.29833984375,0.234832763671875,0.4143829345703125,0.42706298828125,0.187652587890625,-0.008148193359375,-0.0074462890625,-0.0968780517578125,-0.3194122314453125,-0.284027099609375,-0.183563232421875,-0.1776580810546875,-0.0932464599609375,0.1651153564453125,0.148651123046875,0.0858001708984375,0.208251953125,0.4474639892578125,0.463470458984375,0.67681884765625,0.961639404296875,1.1516876220703125,1.2059326171875,1.1688690185546875,1.0606231689453125,0.70477294921875,0.443450927734375,0.1609344482421875,-0.4478759765625,-0.8358612060546875,-0.3948211669921875,-0.4019622802734375,-0.7504119873046875,-0.9231109619140625,-0.870391845703125,-0.8155975341796875,-0.8833770751953125,-1.00341796875,-1.1659698486328125,-1.1192626953125,-1.035552978515625,-0.9549560546875,-0.8697662353515625,-0.7635955810546875,-0.5882415771484375,-0.442169189453125,-0.3501739501953125,-0.434722900390625,-0.6318817138671875,-0.7076263427734375,-0.913787841796875,-1.29541015625,-1.0896453857421875,-0.6783905029296875,-0.5612335205078125,-0.5233154296875,-0.0545501708984375,0.4424591064453125,0.415283203125,0.8229827880859375,0.9068756103515625,0.6116943359375,0.77081298828125,0.86669921875,0.650177001953125,0.2384033203125,-0.0341949462890625,0.02947998046875,-0.204803466796875,-0.28033447265625,-0.288970947265625,-0.401214599609375,-0.47119140625,-0.4807281494140625,-0.511444091796875,-0.353302001953125,-0.1771697998046875,-0.070404052734375,0.12103271484375,0.354583740234375,0.2977447509765625,0.3904571533203125,0.6080474853515625,0.71038818359375,0.67431640625,0.992950439453125,1.17315673828125,0.85125732421875,1.2410888671875,1.103363037109375,1.1193389892578125,1.1185760498046875,0.335662841796875,-0.11669921875,-0.253997802734375,-0.4469146728515625,-0.3114471435546875,-0.4250640869140625,-0.77374267578125,-0.9999237060546875,-1.1195831298828125,-1.256103515625,-1.3141632080078125,-1.3067626953125,-1.28216552734375,-1.158355712890625,-1.051300048828125,-0.8965301513671875,-0.7392425537109375,-0.645965576171875,-0.644287109375,-0.55889892578125,-0.49127197265625,-0.537261962890625,-0.5548248291015625,-0.5769195556640625,-0.7409210205078125,-0.8417205810546875,-0.10980224609375,-0.007904052734375,-0.0230255126953125,0.24151611328125,0.395782470703125,0.90655517578125,0.7474365234375,0.65313720703125,0.673431396484375,0.8655548095703125,0.9685821533203125,0.6683807373046875,0.5133514404296875,0.4219512939453125,0.2504730224609375,0.133453369140625,0.0164337158203125,-0.0255584716796875,-0.15301513671875,-0.3500823974609375,-0.5328826904296875,-0.503509521484375,-0.2773284912109375,-0.1345367431640625,-0.053924560546875,-0.1143646240234375,0.008880615234375,0.301239013671875,0.5624847412109375,0.53363037109375,0.7226409912109375,1.129638671875,1.0707550048828125,0.926849365234375,1.3542327880859375,1.445770263671875,1.24530029296875,0.92498779296875,0.443939208984375,-0.55108642578125,-0.9721832275390625,-0.76141357421875,-0.568939208984375,-0.6429901123046875,-0.977752685546875,-1.092803955078125,-1.1276092529296875,-1.2279510498046875,-1.367156982421875,-1.319183349609375,-1.1993865966796875,-1.022064208984375,-0.84027099609375,-0.660247802734375,-0.5325469970703125,-0.4764404296875,-0.4335174560546875,-0.435211181640625,-0.5124359130859375,-0.618804931640625,-1.0638580322265625,-1.254364013671875,-0.8698272705078125,-0.60919189453125,-0.662689208984375,-0.22088623046875,0.3877410888671875,0.661590576171875,0.5238800048828125,0.3209381103515625,0.3888092041015625,0.527191162109375,0.4110107421875,0.1797332763671875,0.1808624267578125,0.1753387451171875,-0.159271240234375,-0.4114227294921875,-0.3531646728515625,-0.436431884765625,-0.5524139404296875,-0.4725189208984375,-0.257720947265625,-0.203033447265625,-0.1870574951171875,-0.148712158203125,0.0827484130859375,0.2098388671875,0.239532470703125,0.3489837646484375,0.2458038330078125,0.4084930419921875,0.7522430419921875,0.665740966796875,0.8678741455078125,1.22174072265625,1.1782684326171875,1.0532379150390625,1.0364227294921875,0.988128662109375,0.8598785400390625,0.7293701171875,0.4312896728515625,-0.1199951171875,-0.54779052734375,-0.4301605224609375,-0.6248016357421875,-0.8039093017578125,-0.9050445556640625,-0.80145263671875,-0.7089691162109375,-0.8374786376953125,-0.9287872314453125,-0.9891357421875,-1.101531982421875,-1.042205810546875,-0.8325653076171875,-0.648101806640625,-0.5585174560546875,-0.46014404296875,-0.43060302734375,-0.6407928466796875,-0.8057403564453125,-0.8596343994140625,-1.2501373291015625,-1.2560882568359375,-1.07537841796875,-0.7701263427734375,-0.167694091796875,-0.0477294921875,0.0553131103515625,0.0672149658203125,0.151458740234375,0.4055328369140625,0.4246978759765625,0.4701995849609375,0.680877685546875,0.873138427734375,0.90447998046875,0.6761932373046875,0.475311279296875,0.542724609375]","[0.2230987548828125,0.277069091796875,0.3961029052734375,0.47796630859375,0.251312255859375,0.13531494140625,0.4819183349609375,0.496978759765625,-0.109039306640625,-0.4335784912109375,0.0979461669921875,0.4442596435546875,0.0250701904296875,-0.3763427734375,-0.51507568359375,-0.130523681640625,-0.25390625,-0.3566436767578125,-0.8434295654296875,-1.0825958251953125,-0.883514404296875,-0.5485076904296875,-0.25537109375,-0.3498077392578125,-0.496002197265625,-0.795318603515625,-0.7891845703125,-0.4770050048828125,-0.3012542724609375,-0.163299560546875,-0.0894927978515625,0.1037139892578125,0.2017974853515625,0.18792724609375,-0.0861053466796875,-0.28521728515625,-0.351165771484375,-0.728424072265625,-1.1939239501953125,-1.4143218994140625,-1.6372222900390625,-1.3474578857421875,-0.74267578125,-0.6336822509765625,-0.4831695556640625,0.0291595458984375,0.2319488525390625,0.298370361328125,0.0415496826171875,0.2025146484375,0.604888916015625,0.57830810546875,0.4551544189453125,0.3610076904296875,0.076873779296875,0.1772918701171875,0.4607391357421875,0.449676513671875,0.138092041015625,0.1507568359375,0.8061981201171875,1.2505035400390625,0.88494873046875,0.3943939208984375,0.360260009765625,0.3473968505859375,0.0743255615234375,0.28021240234375,0.5117034912109375,0.253692626953125,-0.262725830078125,-0.28240966796875,-0.34796142578125,-0.4853668212890625,-0.521026611328125,-0.5586395263671875,-0.2755126953125,0.1256103515625,0.01983642578125,0.0180206298828125,0.276458740234375,0.348785400390625,0.10455322265625,-0.1852264404296875,-0.3480224609375,-0.444000244140625,-0.3870391845703125,-0.29974365234375,-0.210296630859375,-0.191741943359375,-0.38018798828125,-0.6138153076171875,-0.6117095947265625,-0.552703857421875,-0.5179595947265625,-0.7208099365234375,-0.752593994140625,-0.6700592041015625,-0.6229705810546875,-0.83673095703125,-0.79571533203125,-0.589569091796875,-0.25006103515625,-0.1187591552734375,-0.1807403564453125,-0.0399017333984375,0.1351318359375,0.21856689453125,0.368499755859375,0.2409515380859375,0.0663299560546875,0.205352783203125,0.3768463134765625,0.2949066162109375,0.2682647705078125,0.2745513916015625,0.21661376953125,0.28363037109375,0.39990234375,0.2061920166015625,0.14825439453125,0.34979248046875,0.5369873046875,0.3090057373046875,0.1054229736328125,0.135955810546875,0.0396575927734375,-0.0601043701171875,0.2224884033203125,0.21038818359375,-0.0950927734375,0.051605224609375,0.14508056640625,-0.002716064453125,-0.2360687255859375,-0.136505126953125,-0.54815673828125,-0.837921142578125,-0.8148193359375,-0.764129638671875,-0.787811279296875,-0.567230224609375,-0.4273223876953125,-0.491424560546875,-0.6790008544921875,-0.7519683837890625,-0.6806182861328125,-0.526092529296875,-0.506500244140625,-0.255767822265625,0.013031005859375,0.118438720703125,-0.10650634765625,-0.3621978759765625,-0.466461181640625,-0.4379425048828125,-0.476318359375,-0.621307373046875,-0.6920623779296875,-0.5273284912109375,-0.7462158203125,-1.25018310546875,-1.5181121826171875,-1.5890350341796875,-1.35491943359375,-0.9907684326171875,-0.40216064453125,-0.1881561279296875,0.1021575927734375,0.046783447265625,0.1987152099609375,0.5449066162109375,0.52398681640625,0.42059326171875,0.2250518798828125,0.251495361328125,0.46697998046875,0.5157012939453125,0.22723388671875,0.189453125,0.15155029296875,0.1732330322265625,0.387847900390625,0.6027984619140625,0.5806884765625,0.3649749755859375,0.2359161376953125,0.49713134765625,0.476409912109375,0.0955352783203125,-0.0055999755859375,0.1154327392578125,0.2853851318359375,0.0457305908203125,-0.060272216796875,-0.0050201416015625,-0.0485076904296875,-0.4998779296875,-0.98193359375,-1.1331329345703125,-0.92071533203125,-0.2859344482421875,0.1402740478515625,-0.2900390625,-0.7079010009765625,-1.002288818359375,-0.8415374755859375,-0.7994384765625,-0.8328399658203125,-0.75689697265625,-0.6202545166015625,-0.461273193359375,-0.3077239990234375,-0.18377685546875,-0.2810821533203125,-0.420013427734375,-0.4623565673828125,-0.4966583251953125,-0.5636444091796875,-0.6413421630859375,-0.7354736328125,-0.6403045654296875,-0.5346527099609375,-0.39764404296875,-0.357513427734375,-0.484588623046875,-0.7826385498046875,-0.791748046875,-0.5345458984375,-0.40692138671875,-0.762847900390625,-0.7523040771484375,-0.2232513427734375,0.242828369140625,0.1714019775390625,0.113677978515625,0.254852294921875,0.18743896484375,0.1125946044921875,0.0580596923828125,0.037872314453125,0.1177520751953125,0.2669219970703125,0.37017822265625,0.2598419189453125,0.0736236572265625,0.143096923828125,0.2762298583984375,0.33697509765625,0.374053955078125,0.2386016845703125,0.12115478515625,0.158721923828125,0.3108978271484375,0.341796875,0.2368316650390625,0.0309295654296875,0.0142364501953125,0.0706634521484375,-0.1382293701171875,-0.4465484619140625,-0.6076812744140625,-0.43853759765625,-0.5108795166015625,-1.0059814453125,-1.3353118896484375,-1.0198516845703125,-0.1493682861328125,0.3561859130859375,0.4608001708984375,0.3836669921875,0.0579833984375,-0.2559051513671875,-0.4339752197265625,-0.3600616455078125,-0.253448486328125,-0.1620941162109375,-0.0301666259765625,0.0529022216796875,-0.0774993896484375,-0.295745849609375,-0.421905517578125,-0.503753662109375,-0.4540863037109375,-0.3277740478515625,-0.3041534423828125,-0.56549072265625,-0.667572021484375,-0.670867919921875,-1.232086181640625,-1.569549560546875,-1.2545928955078125,-0.7106475830078125,-0.5985870361328125,-0.4396820068359375,-0.169403076171875,0.1283416748046875,0.0123138427734375,-0.18170166015625,-0.029327392578125,-0.0315399169921875,-0.1542510986328125,-0.009063720703125,0.241790771484375,0.3694305419921875,0.14984130859375,0.23651123046875,0.424072265625,0.162628173828125,0.00140380859375,0.0946502685546875,0.2095489501953125,0.2223968505859375,0.2487945556640625,0.366485595703125,0.2938995361328125,0.0402069091796875,-0.1867828369140625,0.1353912353515625,0.433074951171875,0.134735107421875,-0.4742889404296875,-0.2667694091796875,0.1046295166015625,-0.0741424560546875,-0.383880615234375,-0.8524627685546875,-0.9834442138671875,-0.5134735107421875,-0.2084808349609375,-0.1854095458984375,-0.44281005859375,-0.8305511474609375,-0.892059326171875,-0.6710205078125,-0.44207763671875,-0.284637451171875,-0.357879638671875,-0.4619140625,-0.4484405517578125,-0.41021728515625,-0.3423919677734375,-0.255340576171875,-0.2724609375,-0.28656005859375,-0.270416259765625,-0.1997528076171875,-0.1308746337890625,-0.1797637939453125,-0.3233795166015625,-0.5035400390625,-0.551971435546875,-0.6945648193359375,-0.930877685546875,-0.968414306640625,-0.974822998046875,-0.9283905029296875,-0.848876953125,-0.8787841796875,-0.74359130859375,-0.1974029541015625,-0.01678466796875,-0.0417022705078125,-0.0055389404296875,0.023162841796875,-0.06640625,-0.1408538818359375,0.103515625,0.24908447265625,0.2639617919921875,0.2578582763671875,0.1973419189453125,0.1595611572265625,0.0086822509765625,-0.037322998046875,0.080169677734375,0.247222900390625,0.3868255615234375,0.283935546875,0.1879119873046875,0.1610565185546875,0.1576385498046875,0.184600830078125,0.1804656982421875,-0.0377655029296875,-0.07904052734375,0.0808868408203125,0.1955413818359375,0.0952301025390625,-0.1144256591796875,-0.1347503662109375,-0.4866180419921875,-0.84149169921875,-0.9502105712890625,-0.9247894287109375,-0.3929901123046875,0.0803375244140625,-0.142974853515625,-0.32012939453125,-0.41571044921875,-0.4863128662109375,-0.417083740234375,-0.1422119140625,0.1241912841796875,0.1598358154296875,0.119140625,0.0054473876953125,-0.137908935546875,-0.29150390625,-0.365570068359375,-0.351470947265625,-0.4167327880859375,-0.457550048828125,-0.29095458984375,-0.123077392578125,-0.24749755859375,-0.6439971923828125,-0.8309783935546875,-1.0233612060546875,-0.828857421875,-0.479827880859375,-0.2680206298828125,-0.0643463134765625,0.0348052978515625,-0.07891845703125,0.24102783203125,0.142303466796875,0.0146942138671875,0.1097412109375,0.166839599609375,0.0612640380859375,0.0867462158203125,0.3080596923828125,0.279327392578125,0.1189422607421875,0.2830047607421875,0.293121337890625,0.1897735595703125,0.2790679931640625,0.4442138671875,0.419219970703125,0.3656005859375,0.354278564453125,0.3170013427734375,0.2384796142578125,0.131744384765625,0.172210693359375,0.126708984375,-0.1023406982421875,-0.5974273681640625,-0.5849761962890625,-0.3653106689453125,-0.2253265380859375,-0.312591552734375,-0.2063446044921875,-0.2078094482421875,-0.320159912109375,-0.60443115234375,-0.7380218505859375,-0.6445159912109375,-0.2968292236328125,-0.16961669921875,-0.168212890625,-0.2478179931640625,-0.2696685791015625,-0.33477783203125,-0.506134033203125,-0.6291656494140625,-0.428497314453125,-0.061981201171875,0.06854248046875,-0.1237640380859375,-0.3441619873046875,-0.5626678466796875,-0.723175048828125,-0.8083038330078125,-0.6973724365234375,-0.4471282958984375,-0.2196807861328125,-0.089691162109375,-0.27679443359375,-0.9328460693359375,-1.336334228515625,-1.4393768310546875,-1.2320404052734375,-0.969635009765625,-0.750823974609375,-0.544677734375,-0.1201019287109375,0.2158203125,0.0214996337890625,-0.146697998046875,-0.0609283447265625,-0.1064453125,-0.2463226318359375,-0.15283203125,0.070343017578125]","[0.6517261266708374,0.6424124836921692,-0.11261948943138123,-1.0381721258163452,-0.2573292553424835,0.9459002017974854,-0.3142290413379669,-2.4709670543670654,-1.3593884706497192,1.9995924234390259,2.312495470046997,0.03574201837182045,-1.027068853378296,-0.9858766794204712,-0.7191067337989807,-1.7403595447540283,-3.251175880432129,-5.057300567626953,-4.785055637359619,-2.594794273376465,-0.7071073651313782,-0.7564005851745605,-1.736430048942566,-2.4094460010528564,-2.2941367626190186,-0.7410978078842163,0.5516064167022705,0.7410669326782227,0.9337098598480225,1.2067797183990479,1.3095329999923706,0.8902052640914917,0.17307883501052856,-0.727216899394989,-0.7455998659133911,-0.24379615485668182,-0.5436521172523499,-0.6028488278388977,-0.1585792601108551,1.0861923694610596,2.74021315574646,3.0953800678253174,2.7570481300354004,2.692164659500122,2.838682174682617,3.094136953353882,2.0649056434631348,0.9782922267913818,1.4674499034881592,1.9216887950897217,0.8471797704696655,-0.7558367848396301,-1.3343427181243896,-0.7328076362609863,0.48083505034446716,0.13516049087047577,-0.9946848154067993,-1.3247228860855103,0.16902683675289154,2.193986654281616,1.782903790473938,-0.8741698265075684,-1.8760789632797241,-0.8631938695907593,-0.2660660445690155,-0.7049259543418884,0.6636184453964233,1.5094192028045654,0.49126479029655457,-0.5439216494560242,0.3673194348812103,1.3152198791503906,1.0410975217819214,0.4091419577598572,0.047931574285030365,0.7302550077438354,0.06328416615724564,-2.204447031021118,-3.2479336261749268,-3.0367984771728516,-3.1250100135803223,-3.8226094245910645,-4.157166957855225,-3.5697343349456787,-2.1653788089752197,-0.47500139474868774,0.5581583380699158,0.838787853717804,0.3378603458404541,-0.2982173264026642,-0.032935578376054764,0.8778322339057922,1.4415291547775269,1.3683465719223022,1.3299243450164795,1.9653364419937134,2.68040132522583,2.635470390319824,1.9166972637176514,1.5996493101119995,1.3615021705627441,0.25392070412635803,-0.7088509202003479,-0.15396399796009064,1.1523884534835815,2.308253288269043,2.5383591651916504,1.919252872467041,1.1178858280181885,0.8743325471878052,0.8518842458724976,0.45533689856529236,-0.008110657334327698,-0.19112202525138855,-0.5125298500061035,-0.8399658203125,-0.7962995171546936,-0.968110203742981,-1.4474186897277832,-0.7951828837394714,0.18933743238449097,-0.29947006702423096,-1.8982141017913818,-1.8401814699172974,-0.8789153099060059,-0.9025439620018005,-0.45440158247947693,0.8925901055335999,0.9292852878570557,0.5335379838943481,1.2215712070465088,1.1167398691177368,0.2967272698879242,-0.3456173241138458,-1.1087719202041626,-2.7388699054718018,-2.9857659339904785,-2.3282344341278076,-2.926889657974243,-3.5179545879364014,-3.416187286376953,-3.3964457511901855,-3.7842953205108643,-3.9489362239837646,-3.052971839904785,-1.5608326196670532,-0.16399745643138885,0.9867062568664551,2.16166615486145,2.237114906311035,1.1529021263122559,-0.06019036844372749,-0.3536669909954071,0.31263139843940735,0.8878635168075562,1.0816407203674316,1.416176438331604,2.2548017501831055,2.8985044956207275,1.9692065715789795,1.28901207447052,1.9166285991668701,2.580559730529785,2.9734058380126953,3.5664069652557373,3.1077184677124023,1.4856199026107788,0.3264841139316559,1.204538106918335,1.8753551244735718,1.2268016338348389,0.25701582431793213,-0.666924238204956,-0.8457232713699341,-0.16005411744117737,0.45819899439811707,-0.011725897900760174,-0.9407603144645691,-1.1229647397994995,-0.49178969860076904,0.5269295573234558,1.1265603303909302,0.6732572317123413,-0.6061999201774597,-1.3070507049560547,-0.6375189423561096,0.15610651671886444,-0.5553809404373169,-1.3350975513458252,-0.6728889346122742,0.5064924955368042,0.980958878993988,0.07641594111919403,0.0008407599525526166,0.6308525204658508,0.02906440757215023,-1.2960100173950195,-1.8642667531967163,-2.2194900512695312,-1.9637963771820068,-1.25751531124115,-1.8246586322784424,-4.298526287078857,-5.522548198699951,-4.873394012451172,-3.537229061126709,-2.9249911308288574,-2.4588418006896973,-1.2514796257019043,0.10342252999544144,0.9019548892974854,0.9367602467536926,0.36149054765701294,-0.5142894387245178,-0.8434619903564453,-0.5720352530479431,-0.22963611781597137,0.08485177159309387,0.575992226600647,1.185463547706604,1.9754985570907593,2.7044334411621094,3.183712959289551,2.690629243850708,1.3340932130813599,0.9733086824417114,1.511688470840454,1.2978345155715942,-0.10067281126976013,-0.962352454662323,0.025679530575871468,1.375701904296875,2.079115629196167,2.0357584953308105,2.2886416912078857,2.1807234287261963,1.2974441051483154,0.3705093562602997,0.07766284048557281,0.3931081295013428,1.2485154867172241,1.5702199935913086,0.7807557582855225,-0.4141545593738556,-0.6957337856292725,0.17734920978546143,0.7821469902992249,0.5334934592247009,-0.08736206591129303,-0.697788417339325,-0.7590802907943726,-0.038786545395851135,1.2088812589645386,1.6050472259521484,0.7519475221633911,0.5187608599662781,0.9805032014846802,1.1076041460037231,0.1527344137430191,-0.5074829459190369,0.041549839079380035,0.31499361991882324,-1.706832766532898,-3.9169881343841553,-3.5057263374328613,-0.9010592699050903,0.9949522018432617,0.8433306813240051,-0.8766090273857117,-3.2035298347473145,-4.862783432006836,-4.933651924133301,-3.5055019855499268,-1.4577134847640991,-0.21437062323093414,0.17046600580215454,0.34538963437080383,-0.1279936581850052,-1.036314845085144,-1.5164110660552979,-1.2819701433181763,-0.467809796333313,0.6599443554878235,1.594612956047058,1.6700576543807983,1.252641201019287,1.6436734199523926,1.2268344163894653,-0.29115647077560425,0.41772347688674927,2.294405937194824,2.7595927715301514,1.9146822690963745,1.826928973197937,2.2396793365478516,2.113507032394409,1.6241319179534912,1.3899333477020264,1.1092313528060913,0.909614622592926,1.2659059762954712,1.7614357471466064,1.385185718536377,0.42312437295913696,-0.02328801155090332,0.4219834506511688,-0.029445506632328033,-1.0480260848999023,-1.006016492843628,-0.19226957857608795,0.09990928322076797,0.02822231687605381,0.37499064207077026,0.5862171649932861,-0.06652549654245377,-0.8012434244155884,-0.47855886816978455,0.7666369676589966,0.8917149901390076,-0.8865636587142944,-2.3599936962127686,-0.6825348734855652,0.9782038331031799,-0.04977234825491905,-1.8325506448745728,-2.407790184020996,-1.6712267398834229,0.3880380094051361,1.107921838760376,-0.901464581489563,-3.537767171859741,-4.854197025299072,-3.9783544540405273,-2.201030731201172,-1.3568201065063477,-1.5936174392700195,-2.1182258129119873,-1.9053583145141602,-1.1313214302062988,-0.41031214594841003,0.07152664661407471,0.08618894964456558,-0.2048490196466446,-0.2214282602071762,0.08735834062099457,0.4519469439983368,0.31409773230552673,-0.15374349057674408,-0.35800954699516296,0.014543256722390652,0.813532829284668,1.1601393222808838,1.233519196510315,1.5076849460601807,1.6599924564361572,1.533115029335022,1.4634495973587036,1.247035264968872,2.564527988433838,3.977200746536255,3.483095407485962,2.3622419834136963,1.4823613166809082,0.5770132541656494,0.19733278453350067,0.6372084021568298,1.1533207893371582,1.2705190181732178,1.0669664144515991,0.5770137906074524,-0.1723821610212326,-1.072346568107605,-1.3167365789413452,-0.44516468048095703,0.5834658145904541,0.5726672410964966,0.43664443492889404,0.22967393696308136,0.25391244888305664,0.39705735445022583,0.30065464973449707,0.44123706221580505,0.4124850332736969,-0.29073622822761536,-0.0989750474691391,1.5435012578964233,2.584959030151367,1.3258355855941772,-0.45704105496406555,-0.9120927453041077,-1.5054274797439575,-2.2634153366088867,-2.1153032779693604,-1.3004729747772217,-0.014904647134244442,-1.3290425539016724,-3.7512693405151367,-3.979674816131592,-2.997328281402588,-1.7978276014328003,-0.43046218156814575,0.799480676651001,0.7331416010856628,-0.2714690566062927,-1.0916388034820557,-1.5215504169464111,-1.6486916542053223,-1.3074551820755005,-0.4481506049633026,0.5009872317314148,1.052233338356018,1.6335161924362183,2.483304023742676,2.785926580429077,1.544319987297058,0.2641344368457794,0.10634162276983261,0.9879600405693054,1.4698829650878906,1.4304919242858887,1.6059212684631348,1.4974688291549683,0.6432151794433594,0.36995115876197815,0.6415400505065918,0.8095357418060303,0.8946671485900879,0.8645784854888916,0.3336229622364044,0.1780586838722229,0.6053609848022461,0.7270195484161377,0.10631552338600159,0.03862462565302849,-0.1763172447681427,-0.990378737449646,-1.025357723236084,-0.10711473226547241,0.2744603157043457,-0.14185699820518494,-0.3440631031990051,0.2038881480693817,0.8217580318450928,0.42400532960891724,-0.38923004269599915,-0.2994788587093353,-0.12412247806787491,-1.226710319519043,-1.642743468284607,-0.004744421225041151,1.0620547533035278,0.3123618960380554,-0.5470031499862671,-1.1002395153045654,-2.1397171020507812,-3.4936511516571045,-4.3024420738220215,-3.6034975051879883,-2.1200296878814697,-1.2892801761627197,-1.6013786792755127,-2.049332857131958,-2.155205249786377,-1.956640362739563,-1.651323914527893,-1.0241692066192627,0.3592473864555359,1.9403674602508545,1.9867745637893677,0.20637181401252747,-1.6505398750305176,-2.339629650115967,-2.2266647815704346,-1.5964041948318481,-0.5202695727348328,1.028791904449463,2.1480712890625,2.381831169128418,1.680176854133606,0.2216903120279312,-1.9218417406082153,-2.532111644744873,-0.6603561043739319,0.8573527932167053,1.814293622970581,2.9366424083709717,4.558588027954102,5.40327262878418,4.4586687088012695,2.750300407409668,1.9813531637191772,1.0685292482376099,-0.3529375493526459,-0.37644287943840027,1.0351589918136597,1.4914906024932861,0.8351374864578247]","[-1.0180507898330688,-1.4300261735916138,-0.31465116143226624,0.9659215807914734,0.18960481882095337,-0.9814190864562988,-0.3567698299884796,0.8141112923622131,0.33354413509368896,-0.9837120175361633,-0.8892843127250671,-0.15074902772903442,-0.26710039377212524,-0.3934357166290283,-0.126869797706604,0.2954716086387634,-0.18549662828445435,0.23841576278209686,-0.0551692470908165,-0.2541619837284088,0.07213731110095978,0.3991103768348694,0.8207995295524597,0.8631653785705566,0.5136590600013733,-0.19056861102581024,-0.20283034443855286,0.1801455318927765,0.33644166588783264,0.03373825550079346,-0.637188196182251,-0.799477756023407,-0.7044218182563782,-0.651165246963501,-0.47831597924232483,0.06216483563184738,0.5137456059455872,0.868811309337616,1.824669599533081,1.2835328578948975,-0.11184077709913254,1.2007724046707153,2.169999837875366,0.9573888182640076,0.3510030210018158,1.0930731296539307,1.0897780656814575,1.5099055767059326,0.9085538983345032,0.22245517373085022,-0.47483575344085693,-0.5741660594940186,0.09711483120918274,0.7153818011283875,-0.2679550051689148,-0.8428888916969299,0.08297211676836014,1.0872365236282349,0.6210843324661255,-0.7528210282325745,-1.412627935409546,-0.09316270053386688,0.8724467754364014,0.9254271388053894,0.1747417151927948,-0.7827192544937134,-0.4543145000934601,0.6927191019058228,0.011237207800149918,-1.3263671398162842,-1.1509188413619995,0.14643044769763947,0.13120435178279877,-0.45004013180732727,-0.7627729773521423,-0.9585251808166504,-0.2089710533618927,1.4121323823928833,2.1914947032928467,2.440779447555542,2.7652387619018555,2.57228684425354,1.7375346422195435,1.2968171834945679,0.9874990582466125,0.10807773470878601,-1.1276021003723145,-2.1267144680023193,-1.7186483144760132,-0.5909871459007263,-0.3961121737957001,-0.8676328659057617,-0.898470938205719,-0.30543315410614014,0.4093211889266968,0.17398084700107574,-0.4747859537601471,-0.9668630361557007,-0.44154784083366394,-0.010881409980356693,-0.0481339730322361,0.5632029175758362,2.2507951259613037,2.9233756065368652,2.581463098526001,1.6869500875473022,0.4317881464958191,-0.04887779429554939,0.8245285153388977,0.5151536464691162,-0.9595097899436951,-0.9212686419487,-0.47373268008232117,-1.0151314735412598,-0.7579675912857056,-0.1734306365251541,-0.6142927408218384,-0.8964554071426392,0.030123280361294746,0.2957589626312256,0.06148706376552582,0.4313032031059265,1.3526482582092285,1.2088186740875244,0.3902615010738373,0.08245199918746948,0.11762623488903046,-0.10981864482164383,-0.5223015546798706,-1.2769469022750854,-1.1266340017318726,-0.5289596915245056,-1.423732876777649,-2.0917627811431885,-0.5984101891517639,0.772350549697876,-0.6092774271965027,-1.834825038909912,0.030557643622159958,1.9995990991592407,2.2922372817993164,2.020754337310791,1.284156322479248,-0.08797433227300644,-0.7758256793022156,-0.7981448173522949,-0.7491205930709839,-0.6969428658485413,-1.174682855606079,-1.2757800817489624,-0.8124412298202515,-0.3364531099796295,-0.360625296831131,-0.6058960556983948,-0.4622477889060974,-0.0845862552523613,0.03274915739893913,-0.010486463084816933,-0.025528529658913612,0.6778839230537415,1.2972476482391357,1.2229118347167969,0.4168555438518524,0.04785247519612312,0.1740514189004898,-0.14980573952198029,0.29129281640052795,1.2464150190353394,2.3299953937530518,0.5760601162910461,-0.5746957659721375,-0.2098672091960907,-0.20575982332229614,-0.15134797990322113,-0.5614532232284546,-0.9990031123161316,-0.30218756198883057,0.2207518219947815,-0.7345200777053833,-0.7709848880767822,-0.6409754753112793,-1.107972502708435,-0.9107664823532104,0.4316866993904114,1.6615650653839111,1.2465479373931885,-0.08686645328998566,0.106882244348526,0.5557982325553894,0.29055726528167725,-0.3156522214412689,-1.0911979675292969,-1.0232703685760498,-0.5793126225471497,-0.4391286373138428,-0.8792215585708618,0.08297717571258545,0.438071608543396,-0.7443271279335022,-1.022227168083191,-0.41172948479652405,0.5623599886894226,1.189786672592163,0.8004423379898071,0.02280225232243538,-0.3479744791984558,0.26902028918266296,0.503141462802887,-0.3504783809185028,-1.0398200750350952,-1.0469306707382202,-1.0006282329559326,-0.747544527053833,-0.45009845495224,-0.2875513434410095,-0.1460280418395996,0.1209288164973259,0.1663583517074585,0.22619345784187317,0.12893934547901154,0.11766617745161057,0.22365519404411316,0.021637650206685066,0.04236849397420883,0.849985659122467,1.4340720176696777,0.671267032623291,0.07903862744569778,0.9574916362762451,2.435455799102783,1.9625401496887207,1.4281760454177856,2.756206512451172,3.3577702045440674,2.0708093643188477,0.509415864944458,-0.07265129685401917,0.0806138888001442,0.9222286939620972,1.6117911338806152,1.5862804651260376,0.630473792552948,-0.26214081048965454,-0.35388484597206116,-0.02575835958123207,0.2979653775691986,0.24927134811878204,-0.05296920984983444,-0.07749239355325699,0.6592977643013,0.7294629812240601,-0.2063601016998291,-1.087280035018921,-1.0128555297851562,-0.3511468470096588,-0.3880001902580261,-1.2306952476501465,-1.4758306741714478,-0.19036275148391724,0.6060875058174133,-0.4015764594078064,-1.586171269416809,-0.22248686850070953,1.9480805397033691,2.677372932434082,1.8377726078033447,1.3882925510406494,2.2304298877716064,3.1260552406311035,3.219860553741455,2.8091704845428467,1.6900787353515625,0.36131638288497925,-0.5726875066757202,-1.0748302936553955,-1.4322328567504883,-1.2464534044265747,-0.20998571813106537,0.7058655023574829,0.7624555826187134,0.2594294250011444,-0.23083721101284027,-0.7907028794288635,-1.10939621925354,-1.2190625667572021,-1.5049887895584106,-1.6503574848175049,-0.8696349859237671,0.30482569336891174,0.36043861508369446,0.19064371287822723,0.8873854875564575,1.9684875011444092,2.401465892791748,2.121716260910034,2.371401071548462,2.2727744579315186,0.699724018573761,0.23287558555603027,1.159155249595642,0.8787315487861633,-0.7251819372177124,-1.4002392292022705,0.028872927650809288,1.2806323766708374,0.12768499553203583,-1.2621655464172363,-1.0757237672805786,-0.3610476851463318,0.6277906894683838,0.8769392371177673,0.5830343961715698,-0.10575225949287415,0.024080835282802582,0.9094098210334778,1.203543782234192,0.3923286199569702,-0.862461507320404,-0.6644336581230164,0.9016938805580139,0.5307030081748962,-1.6325500011444092,-1.3638354539871216,0.3584710657596588,0.7380732297897339,-0.5281109809875488,-2.037132978439331,-1.672776460647583,0.22734686732292175,1.6421564817428589,2.3749313354492188,2.3894951343536377,1.941388487815857,1.376222848892212,0.8344602584838867,0.8126785159111023,0.9320768117904663,0.6951561570167542,0.06980624794960022,-0.3125469982624054,-0.5085577964782715,-0.44562381505966187,-0.39418724179267883,-0.4458451271057129,-0.5280606150627136,-0.6153897047042847,-0.37753263115882874,0.04788496717810631,0.2991257309913635,0.42784827947616577,0.11102132499217987,-0.3910071849822998,-0.7705281376838684,0.1153753250837326,0.7820274233818054,0.24224059283733368,0.9474430084228516,2.8638463020324707,3.0517995357513428,2.0637032985687256,1.5241070985794067,1.1457773447036743,0.8038972616195679,0.9944424629211426,1.6091312170028687,1.148113489151001,0.4386729598045349,0.38438281416893005,-0.0960082858800888,-0.8731125593185425,-1.0453228950500488,-0.6687746047973633,0.2203424870967865,0.27601319551467896,-0.5740513205528259,-1.0075832605361938,-0.3990320861339569,0.8686323165893555,1.1278777122497559,0.07822342962026596,-0.9839386940002441,-1.101763367652893,0.020410999655723572,0.08633142709732056,-0.9137875437736511,-1.1445469856262207,-0.1456615924835205,-0.35708701610565186,-1.0169531106948853,0.06423890590667725,1.8390477895736694,0.31851354241371155,-1.686011552810669,-1.1133251190185547,-0.0681481584906578,1.7348304986953735,3.4503982067108154,3.0279746055603027,1.569516897201538,0.12688498198986053,-1.0436675548553467,-1.240520715713501,-0.4805721938610077,0.36411750316619873,0.6295105814933777,0.7095375061035156,0.716023862361908,0.5971235632896423,0.13022537529468536,-0.31474488973617554,-0.6205562353134155,-1.2473218441009521,-1.1609832048416138,-0.52772057056427,-0.1013047844171524,-0.1157124862074852,0.3014027178287506,0.5826866030693054,-0.2097202092409134,0.1376739740371704,0.71288001537323,0.8962178826332092,1.2700124979019165,1.320272445678711,0.9614304304122925,1.8028143644332886,0.8887032270431519,-0.36881425976753235,0.027891818434000015,0.7201019525527954,-0.036744166165590286,-1.038065791130066,-0.7194827795028687,-0.6481209993362427,-0.746126651763916,0.051588091999292374,0.6783998012542725,0.43856164813041687,0.6883988976478577,1.2523256540298462,1.0442768335342407,0.5696086287498474,0.20818303525447845,-0.17330972850322723,-0.7991925477981567,-0.44608721137046814,0.7022968530654907,1.3017762899398804,0.3492245674133301,-1.2117489576339722,-1.235690712928772,-0.27426376938819885,-0.14146392047405243,-0.38399428129196167,0.28507354855537415,0.8691343069076538,0.8674344420433044,0.7381829619407654,0.7886794209480286,0.9312059879302979,1.2106869220733643,1.5567444562911987,1.6860520839691162,1.6141656637191772,1.2063440084457397,0.05226773023605347,-1.4804017543792725,-2.6788735389709473,-2.744894504547119,-1.219236969947815,0.530269980430603,1.1228169202804565,0.7159416079521179,-0.12407241016626358,-0.5908235907554626,-0.3428463041782379,-0.11896713078022003,-0.3749525845050812,-0.3929249048233032,0.6242532134056091,1.0609066486358643,1.3779536485671997,2.485790967941284,2.4966530799865723,3.0067503452301025,3.634953498840332,2.91555118560791,1.4407938718795776,1.3401894569396973,2.4316978454589844,1.8360623121261597,0.9207176566123962,1.4266726970672607,2.0774457454681396,1.458709955215454,0.19585739076137543,-0.5955440402030945]","[0.07765378057956696,0.7161208391189575,1.4938699007034302,2.2194623947143555,2.8632938861846924,3.200810670852661,3.1800448894500732,3.732623815536499,5.574939727783203,6.237452983856201,5.118205547332764,5.86420202255249,6.828418254852295,7.182087421417236,6.687437057495117,5.774151802062988,5.838676452636719,5.584829330444336,4.7802815437316895,3.9944376945495605,3.6910243034362793,3.6624889373779297,3.201939344406128,2.7669386863708496,2.2776896953582764,1.5277665853500366,0.717881977558136,0.303837388753891,0.08443579077720642,-0.3947816789150238,-0.9020746946334839,-1.3356178998947144,-1.7475117444992065,-2.421443223953247,-3.082226514816284,-3.570765733718872,-4.230219841003418,-4.782933712005615,-4.208974361419678,-4.218178749084473,-5.126549243927002,-5.138090133666992,-5.400845527648926,-6.663127899169922,-6.991617202758789,-7.27187442779541,-6.6453986167907715,-5.31513786315918,-4.540571689605713,-4.754851341247559,-3.6226181983947754,-2.1480984687805176,-2.3517494201660156,-2.4412307739257812,-2.0660223960876465,-0.9477458000183105,-0.1876993328332901,0.09769672900438309,1.052907109260559,1.5295079946517944,0.8000447154045105,1.0193959474563599,2.55360746383667,3.655730724334717,3.346642255783081,3.7092630863189697,5.481695175170898,5.736882209777832,4.809305191040039,5.778965950012207,7.7597808837890625,7.46412467956543,6.437712669372559,6.757800102233887,6.800699710845947,5.5725483894348145,4.344776153564453,3.9173901081085205,4.058993816375732,3.002648115158081,1.7766700983047485,1.5480941534042358,2.3339059352874756,2.718090057373047,1.8830891847610474,0.6069067120552063,-0.18246568739414215,-0.38616955280303955,-0.5717329978942871,-0.8743714094161987,-1.2341264486312866,-1.8416171073913574,-2.2322096824645996,-2.3019051551818848,-2.4266371726989746,-2.5801193714141846,-2.367655038833618,-2.8809573650360107,-3.7872121334075928,-3.544687271118164,-4.011476993560791,-5.968365669250488,-6.496472358703613,-6.1706366539001465,-6.80922794342041,-6.757009506225586,-6.570804595947266,-6.216799736022949,-5.907242774963379,-5.532762050628662,-4.494902610778809,-3.4331629276275635,-2.7815747261047363,-2.4021098613739014,-1.8200687170028687,-1.1138361692428589,-0.5416457056999207,-0.5437285304069519,-0.521223247051239,0.15555177628993988,0.5615594983100891,0.4720061421394348,1.4376989603042603,2.6169281005859375,2.5611860752105713,2.6716315746307373,3.9037680625915527,5.098239421844482,4.463799476623535,4.416472434997559,5.7509684562683105,7.221541404724121,7.281919479370117,6.157822608947754,6.142512798309326,6.756046772003174,6.277547359466553,5.3284173011779785,4.774951934814453,4.06473970413208,2.4550940990448,1.8470020294189453,2.079820394515991,2.5036802291870117,2.6813580989837646,2.2367000579833984,1.43523371219635,0.682400107383728,0.20679552853107452,-0.41815677285194397,-0.990977942943573,-1.3491171598434448,-1.7257704734802246,-1.957897424697876,-1.9804381132125854,-2.3429360389709473,-2.6170613765716553,-2.329810380935669,-2.5745630264282227,-3.7453200817108154,-3.3364219665527344,-2.420492172241211,-3.7380738258361816,-4.044564723968506,-3.3877930641174316,-4.570775985717773,-5.990548610687256,-5.7219343185424805,-6.464556694030762,-6.771550178527832,-5.568769454956055,-4.569315433502197,-4.331042766571045,-3.978088617324829,-3.1301188468933105,-3.080789566040039,-3.629105806350708,-3.1872990131378174,-1.7520030736923218,-1.0487661361694336,-0.39726880192756653,-0.09959663450717926,-0.01630653440952301,0.5458143353462219,1.1250712871551514,1.2676771879196167,1.558079481124878,2.1469242572784424,2.7932074069976807,3.386207103729248,3.791975259780884,4.393500804901123,4.504525184631348,5.897646427154541,7.230477809906006,6.243001461029053,6.1543097496032715,7.052804946899414,7.261337757110596,6.78430700302124,6.324687957763672,4.291337966918945,2.7096357345581055,2.4145872592926025,2.5405614376068115,2.2331464290618896,1.7209255695343018,1.9137800931930542,1.7651383876800537,1.3501914739608765,0.8996285796165466,0.38905346393585205,-0.11557373404502869,-0.5417599081993103,-0.9074606895446777,-1.2374173402786255,-1.6889469623565674,-1.973818302154541,-1.9142341613769531,-1.5860189199447632,-1.3915799856185913,-1.3408172130584717,-1.8154127597808838,-2.011594533920288,-1.6700706481933594,-1.9529894590377808,-3.007935047149658,-3.5532619953155518,-3.9368064403533936,-4.058684349060059,-4.332198619842529,-5.07776403427124,-6.350045680999756,-6.505426406860352,-5.674993515014648,-4.97675895690918,-4.5702223777771,-4.073978424072266,-3.9788081645965576,-4.2254815101623535,-3.738727331161499,-2.523587703704834,-1.4407483339309692,-0.9003133177757263,-0.30426695942878723,0.4420194923877716,0.49113163352012634,0.3282516598701477,0.7459322214126587,1.6868195533752441,2.6336116790771484,3.616307258605957,3.820450782775879,3.9000353813171387,4.6107177734375,6.009410381317139,6.423401832580566,5.984175682067871,5.92354679107666,6.758500576019287,6.754978179931641,6.16425085067749,6.117572784423828,5.665453910827637,4.308010101318359,2.562272310256958,1.3613405227661133,0.8774569630622864,1.1188511848449707,1.879719853401184,2.4446310997009277,2.659627676010132,2.8255388736724854,2.6134324073791504,1.8460901975631714,1.2061587572097778,0.5743247866630554,0.058816712349653244,-0.5060355067253113,-0.9544724225997925,-1.3283799886703491,-1.814715027809143,-2.2143728733062744,-2.5387537479400635,-2.7080984115600586,-2.750108480453491,-3.4495387077331543,-4.268039226531982,-3.7534523010253906,-3.846449375152588,-5.368383407592773,-6.079356670379639,-6.088529586791992,-6.582611083984375,-7.07619047164917,-7.002607345581055,-6.52336311340332,-5.249447345733643,-4.503448009490967,-4.610664367675781,-4.245983600616455,-3.1018102169036865,-2.2965142726898193,-2.4145681858062744,-2.1428956985473633,-1.0313767194747925,-0.8647592663764954,-0.5538685321807861,0.2913583517074585,0.8378549814224243,0.9377743601799011,1.0090360641479492,1.3283836841583252,1.796944499015808,2.1324987411499023,2.2589211463928223,2.9506537914276123,4.33647346496582,4.637460708618164,3.9898321628570557,4.832542896270752,7.3497395515441895,7.321439266204834,6.07797908782959,6.082049369812012,7.092723369598389,7.550345420837402,6.094940185546875,3.4540321826934814,2.7348523139953613,3.0665504932403564,3.212810516357422,2.6733245849609375,1.3991625308990479,1.1257277727127075,1.812925100326538,1.963641881942749,1.4420527219772339,1.024678111076355,0.701447606086731,0.27684304118156433,-0.12383965402841568,-0.5881215929985046,-0.9270245432853699,-1.260467529296875,-1.6276915073394775,-1.8999496698379517,-1.9707207679748535,-2.2088160514831543,-2.3867475986480713,-2.4961912631988525,-3.047912359237671,-3.4320902824401855,-2.8264081478118896,-3.104588508605957,-4.283017635345459,-4.770078182220459,-5.003195285797119,-5.100800514221191,-6.411354064941406,-7.217160224914551,-6.19828987121582,-5.330803871154785,-5.499650478363037,-5.687432289123535,-4.70954704284668,-3.5606608390808105,-3.015155553817749,-2.4721519947052,-1.7391581535339355,-1.085400104522705,-0.5264707207679749,-0.011082745157182217,0.3209702968597412,0.5747972726821899,0.9216907620429993,1.3516836166381836,1.630629539489746,1.9750455617904663,2.2715306282043457,2.7613935470581055,3.4243810176849365,3.7355637550354004,3.7764976024627686,4.761620998382568,5.894944190979004,5.458844184875488,4.980474472045898,5.670957565307617,6.232387542724609,6.07213830947876,5.451958179473877,6.141021251678467,6.3430681228637695,4.635422706604004,2.3612093925476074,1.9625539779663086,2.190469264984131,2.1937808990478516,2.324474334716797,2.390510082244873,1.622407078742981,0.4986204504966736,-0.17967282235622406,-0.8102912306785583,-1.3305903673171997,-1.5419037342071533,-1.4723373651504517,-1.3726550340652466,-1.4131609201431274,-1.7614234685897827,-2.20432710647583,-2.5512802600860596,-3.045849561691284,-3.9035911560058594,-3.9384806156158447,-3.219923496246338,-3.8537254333496094,-5.099444389343262,-4.72249174118042,-4.479140758514404,-5.478940486907959,-6.093560218811035,-4.678211212158203,-4.247541427612305,-4.933737277984619,-4.766049385070801,-4.119523525238037,-3.4941093921661377,-3.264655351638794,-2.748640298843384,-2.319735050201416,-2.1221399307250977,-1.3917738199234009,-0.6085778474807739,-0.3194237947463989,-0.27454981207847595,-0.023749005049467087,0.33640649914741516,0.9517402648925781,1.8022077083587646,2.4367527961730957,2.7524285316467285,2.936854839324951,3.3563015460968018,4.155932903289795,4.404816150665283,4.914185047149658,6.502254009246826,7.071187973022461,6.21754789352417,5.892020225524902,6.086055755615234,5.785667419433594,5.181145668029785,4.385347843170166,4.064609527587891,3.866079568862915,3.3344109058380127,2.291377305984497,1.4101417064666748,1.015726923942566,0.7664843797683716,0.7941367626190186,0.9331750869750977,1.2506012916564941,1.8207025527954102,1.8285574913024902,0.8757349848747253,-0.1450706422328949,-0.9295849204063416,-1.4705512523651123,-1.5874754190444946,-1.3615206480026245,-1.22446870803833,-1.1925104856491089,-1.2085422277450562,-1.9809311628341675,-2.5331509113311768,-2.5389041900634766,-4.108076095581055,-4.9412031173706055,-4.39715051651001,-4.947935581207275,-5.583331108093262,-5.330164432525635,-4.562745094299316,-5.423872470855713,-6.295215606689453,-6.136801719665527,-5.71886682510376,-5.543378829956055,-5.291281700134277,-4.390580654144287,-2.5367822647094727,-1.8636356592178345,-2.193704843521118]",1,74,175,"[1.589808273536e+12,1.589808273555e+12,1.589808273573e+12,1.589808273593e+12,1.589808273616e+12,1.589808273635e+12,1.589808273656e+12,1.589808273677e+12,1.589808273696e+12,1.589808273717e+12,1.589808273737e+12,1.589808273777e+12,1.589808273779e+12,1.589808273798e+12,1.589808273818e+12,1.58980827384e+12,1.589808273858e+12,1.589808273879e+12,1.5898082739e+12,1.589808273918e+12,1.589808273938e+12,1.589808273958e+12,1.589808273978e+12,1.589808273998e+12,1.589808274018e+12,1.589808274038e+12,1.589808274058e+12,1.589808274079e+12,1.589808274099e+12,1.589808274119e+12,1.589808274139e+12,1.58980827416e+12,1.589808274179e+12,1.589808274199e+12,1.58980827422e+12,1.58980827424e+12,1.589808274259e+12,1.58980827428e+12,1.5898082743e+12,1.58980827432e+12,1.58980827434e+12,1.58980827436e+12,1.58980827438e+12,1.589808274402e+12,1.589808274422e+12,1.589808274443e+12,1.589808274463e+12,1.589808274483e+12,1.589808274503e+12,1.58980827452e+12,1.589808274541e+12,1.589808274561e+12,1.589808274582e+12,1.589808274601e+12,1.589808274621e+12,1.589808274641e+12,1.589808274662e+12,1.589808274681e+12,1.589808274702e+12,1.589808274722e+12,1.589808274742e+12,1.589808274763e+12,1.589808274783e+12,1.589808274802e+12,1.589808274822e+12,1.589808274844e+12,1.589808274861e+12,1.589808274881e+12,1.589808274902e+12,1.589808274922e+12,1.589808274942e+12,1.589808274965e+12,1.589808274984e+12,1.589808275006e+12,1.589808275026e+12,1.589808275042e+12,1.589808275064e+12,1.589808275086e+12,1.589808275104e+12,1.589808275124e+12,1.589808275144e+12,1.589808275164e+12,1.589808275185e+12,1.589808275204e+12,1.589808275225e+12,1.589808275245e+12,1.589808275265e+12,1.589808275285e+12,1.589808275306e+12,1.589808275325e+12,1.589808275345e+12,1.589808275365e+12,1.589808275385e+12,1.589808275406e+12,1.589808275425e+12,1.589808275446e+12,1.589808275466e+12,1.589808275487e+12,1.589808275506e+12,1.589808275526e+12,1.589808275546e+12,1.589808275567e+12,1.589808275589e+12,1.589808275609e+12,1.589808275626e+12,1.58980827565e+12,1.58980827567e+12,1.58980827569e+12,1.589808275709e+12,1.589808275729e+12,1.589808275747e+12,1.589808275768e+12,1.589808275788e+12,1.589808275808e+12,1.589808275828e+12,1.589808275848e+12,1.589808275868e+12,1.589808275888e+12,1.589808275908e+12,1.589808275928e+12,1.589808275949e+12,1.589808275969e+12,1.589808275989e+12,1.589808276009e+12,1.58980827603e+12,1.589808276051e+12,1.589808276069e+12,1.58980827609e+12,1.58980827611e+12,1.589808276132e+12,1.589808276152e+12,1.589808276172e+12,1.589808276191e+12,1.58980827621e+12,1.589808276232e+12,1.589808276252e+12,1.589808276273e+12,1.589808276292e+12,1.589808276311e+12,1.589808276331e+12,1.589808276351e+12,1.589808276371e+12,1.589808276391e+12,1.589808276411e+12,1.589808276431e+12,1.589808276451e+12,1.589808276471e+12,1.589808276492e+12,1.589808276512e+12,1.589808276532e+12,1.589808276552e+12,1.589808276572e+12,1.589808276592e+12,1.589808276612e+12,1.589808276632e+12,1.589808276652e+12,1.589808276672e+12,1.589808276693e+12,1.589808276713e+12,1.589808276733e+12,1.589808276753e+12,1.589808276773e+12,1.589808276793e+12,1.589808276813e+12,1.589808276834e+12,1.589808276853e+12,1.589808276875e+12,1.589808276896e+12,1.589808276916e+12,1.589808276933e+12,1.589808276952e+12,1.589808276976e+12,1.589808276995e+12,1.589808277015e+12,1.589808277037e+12,1.589808277056e+12,1.589808277075e+12,1.589808277095e+12,1.589808277115e+12,1.589808277135e+12,1.589808277155e+12,1.589808277175e+12,1.589808277195e+12,1.589808277215e+12,1.589808277236e+12,1.589808277256e+12,1.589808277276e+12,1.589808277296e+12,1.589808277317e+12,1.589808277336e+12,1.589808277356e+12,1.589808277376e+12,1.589808277397e+12,1.589808277418e+12,1.589808277438e+12,1.589808277458e+12,1.589808277479e+12,1.589808277496e+12,1.589808277519e+12,1.589808277539e+12,1.589808277559e+12,1.589808277579e+12,1.5898082776e+12,1.589808277618e+12,1.589808277637e+12,1.589808277658e+12,1.589808277678e+12,1.589808277698e+12,1.589808277719e+12,1.589808277738e+12,1.589808277758e+12,1.589808277778e+12,1.589808277798e+12,1.589808277819e+12,1.589808277838e+12,1.589808277859e+12,1.589808277879e+12,1.589808277899e+12,1.589808277919e+12,1.589808277939e+12,1.589808277959e+12,1.589808277979e+12,1.589808278e+12,1.58980827802e+12,1.58980827804e+12,1.58980827806e+12,1.58980827808e+12,1.589808278101e+12,1.589808278121e+12,1.589808278141e+12,1.589808278163e+12,1.589808278183e+12,1.589808278203e+12,1.589808278223e+12,1.589808278243e+12,1.589808278263e+12,1.589808278283e+12,1.589808278304e+12,1.589808278323e+12,1.589808278343e+12,1.58980827836e+12,1.589808278381e+12,1.589808278402e+12,1.589808278421e+12,1.589808278442e+12,1.589808278462e+12,1.589808278482e+12,1.589808278503e+12,1.589808278523e+12,1.589808278542e+12,1.589808278563e+12,1.589808278583e+12,1.589808278603e+12,1.589808278623e+12,1.589808278643e+12,1.589808278663e+12,1.589808278684e+12,1.589808278705e+12,1.589808278725e+12,1.589808278746e+12,1.589808278765e+12,1.589808278782e+12,1.589808278803e+12,1.589808278826e+12,1.589808278846e+12,1.589808278865e+12,1.589808278884e+12,1.589808278904e+12,1.589808278925e+12,1.589808278944e+12,1.589808278964e+12,1.589808278985e+12,1.589808279005e+12,1.589808279025e+12,1.589808279045e+12,1.589808279065e+12,1.589808279085e+12,1.589808279105e+12,1.589808279125e+12,1.589808279145e+12,1.589808279166e+12,1.589808279186e+12,1.589808279206e+12,1.589808279226e+12,1.589808279246e+12,1.589808279266e+12,1.589808279286e+12,1.589808279306e+12,1.589808279327e+12,1.589808279346e+12,1.589808279367e+12,1.589808279387e+12,1.589808279409e+12,1.589808279429e+12,1.58980827945e+12,1.58980827947e+12,1.58980827949e+12,1.589808279512e+12,1.589808279526e+12,1.589808279546e+12,1.58980827957e+12,1.589808279589e+12,1.589808279608e+12,1.589808279629e+12,1.589808279648e+12,1.589808279668e+12,1.589808279688e+12,1.589808279709e+12,1.589808279728e+12,1.589808279749e+12,1.589808279769e+12,1.589808279789e+12,1.589808279809e+12,1.589808279829e+12,1.58980827985e+12,1.589808279869e+12,1.58980827989e+12,1.58980827991e+12,1.58980827993e+12,1.58980827995e+12,1.589808279972e+12,1.58980827999e+12,1.589808280011e+12,1.589808280032e+12,1.58980828005e+12,1.589808280073e+12,1.589808280093e+12,1.589808280113e+12,1.589808280133e+12,1.589808280153e+12,1.589808280171e+12,1.589808280191e+12,1.589808280211e+12,1.589808280231e+12,1.589808280251e+12,1.589808280271e+12,1.589808280291e+12,1.589808280312e+12,1.589808280332e+12,1.589808280352e+12,1.589808280372e+12,1.589808280392e+12,1.589808280413e+12,1.589808280433e+12,1.589808280453e+12,1.589808280473e+12,1.589808280493e+12,1.589808280514e+12,1.589808280533e+12,1.589808280553e+12,1.589808280573e+12,1.589808280594e+12,1.589808280614e+12,1.589808280634e+12,1.589808280653e+12,1.589808280673e+12,1.589808280695e+12,1.589808280716e+12,1.589808280736e+12,1.589808280756e+12,1.589808280776e+12,1.589808280796e+12,1.589808280817e+12,1.589808280837e+12,1.589808280856e+12,1.589808280877e+12,1.589808280895e+12,1.589808280915e+12,1.589808280935e+12,1.589808280956e+12,1.589808280975e+12,1.589808280995e+12,1.589808281016e+12,1.589808281035e+12,1.589808281056e+12,1.589808281076e+12,1.589808281096e+12,1.589808281116e+12,1.589808281136e+12,1.589808281156e+12,1.589808281176e+12,1.589808281196e+12,1.589808281217e+12,1.589808281236e+12,1.589808281257e+12,1.589808281277e+12,1.589808281299e+12,1.589808281317e+12,1.58980828134e+12,1.58980828136e+12,1.589808281379e+12,1.5898082814e+12,1.589808281417e+12,1.58980828144e+12,1.58980828146e+12,1.589808281479e+12,1.589808281498e+12,1.589808281518e+12,1.589808281538e+12,1.589808281558e+12,1.589808281578e+12,1.589808281599e+12,1.589808281619e+12,1.589808281638e+12,1.589808281659e+12,1.589808281679e+12,1.589808281699e+12,1.589808281719e+12,1.589808281739e+12,1.589808281759e+12,1.589808281779e+12,1.5898082818e+12,1.58980828182e+12,1.58980828184e+12,1.58980828186e+12,1.58980828188e+12,1.5898082819e+12,1.58980828192e+12,1.58980828194e+12,1.58980828196e+12,1.58980828198e+12,1.589808282001e+12,1.589808282023e+12,1.589808282042e+12,1.589808282064e+12,1.589808282083e+12,1.589808282103e+12,1.589808282123e+12,1.589808282143e+12,1.589808282162e+12,1.589808282183e+12,1.589808282202e+12,1.589808282222e+12,1.589808282242e+12,1.589808282262e+12,1.589808282282e+12,1.589808282302e+12,1.589808282322e+12,1.589808282342e+12,1.589808282363e+12,1.589808282383e+12,1.589808282403e+12,1.589808282423e+12,1.589808282444e+12,1.589808282464e+12,1.589808282483e+12,1.589808282502e+12,1.589808282522e+12,1.589808282544e+12,1.589808282564e+12,1.589808282582e+12,1.589808282604e+12,1.589808282624e+12,1.589808282644e+12,1.589808282665e+12,1.589808282685e+12,1.589808282705e+12,1.589808282725e+12,1.589808282742e+12,1.589808282765e+12,1.589808282785e+12,1.589808282805e+12,1.589808282826e+12,1.589808282845e+12,1.589808282865e+12,1.589808282885e+12,1.589808282906e+12,1.589808282926e+12,1.589808282946e+12,1.589808282966e+12,1.589808282987e+12,1.589808283006e+12,1.589808283026e+12,1.589808283046e+12,1.589808283067e+12,1.589808283086e+12,1.589808283107e+12,1.589808283127e+12,1.589808283147e+12,1.589808283167e+12,1.589808283187e+12,1.589808283207e+12,1.589808283227e+12,1.589808283247e+12,1.589808283269e+12,1.58980828329e+12,1.589808283309e+12,1.58980828333e+12,1.58980828335e+12,1.589808283369e+12,1.58980828339e+12,1.58980828341e+12,1.58980828343e+12,1.589808283451e+12,1.589808283468e+12,1.589808283488e+12,1.589808283509e+12]","[1.589808273536e+12,1.589808273555e+12,1.589808273573e+12,1.589808273593e+12,1.589808273616e+12,1.589808273635e+12,1.589808273656e+12,1.589808273677e+12,1.589808273696e+12,1.589808273717e+12,1.589808273777e+12,1.589808273779e+12,1.589808273798e+12,1.589808273818e+12,1.58980827384e+12,1.589808273858e+12,1.589808273879e+12,1.5898082739e+12,1.5898082739e+12,1.589808273918e+12,1.589808273938e+12,1.589808273958e+12,1.589808273978e+12,1.589808273998e+12,1.589808274018e+12,1.589808274038e+12,1.589808274058e+12,1.589808274079e+12,1.589808274099e+12,1.589808274119e+12,1.589808274139e+12,1.58980827416e+12,1.589808274179e+12,1.589808274199e+12,1.58980827422e+12,1.58980827424e+12,1.589808274259e+12,1.58980827428e+12,1.5898082743e+12,1.58980827432e+12,1.58980827434e+12,1.58980827436e+12,1.58980827438e+12,1.589808274422e+12,1.589808274443e+12,1.589808274443e+12,1.589808274483e+12,1.589808274503e+12,1.58980827452e+12,1.589808274541e+12,1.589808274541e+12,1.589808274561e+12,1.589808274582e+12,1.589808274601e+12,1.589808274621e+12,1.589808274641e+12,1.589808274662e+12,1.589808274681e+12,1.589808274702e+12,1.589808274722e+12,1.589808274742e+12,1.589808274763e+12,1.589808274783e+12,1.589808274802e+12,1.589808274822e+12,1.589808274844e+12,1.589808274861e+12,1.589808274881e+12,1.589808274922e+12,1.589808274942e+12,1.589808274942e+12,1.589808274984e+12,1.589808275006e+12,1.589808275006e+12,1.589808275026e+12,1.589808275064e+12,1.589808275086e+12,1.589808275104e+12,1.589808275104e+12,1.589808275124e+12,1.589808275144e+12,1.589808275164e+12,1.589808275185e+12,1.589808275204e+12,1.589808275225e+12,1.589808275245e+12,1.589808275265e+12,1.589808275285e+12,1.589808275306e+12,1.589808275325e+12,1.589808275345e+12,1.589808275365e+12,1.589808275385e+12,1.589808275406e+12,1.589808275425e+12,1.589808275446e+12,1.589808275466e+12,1.589808275487e+12,1.589808275506e+12,1.589808275526e+12,1.589808275546e+12,1.589808275589e+12,1.589808275609e+12,1.589808275626e+12,1.58980827565e+12,1.58980827567e+12,1.58980827567e+12,1.58980827569e+12,1.589808275729e+12,1.589808275747e+12,1.589808275747e+12,1.589808275768e+12,1.589808275788e+12,1.589808275808e+12,1.589808275828e+12,1.589808275848e+12,1.589808275868e+12,1.589808275888e+12,1.589808275908e+12,1.589808275928e+12,1.589808275949e+12,1.589808275969e+12,1.589808275989e+12,1.589808276009e+12,1.58980827603e+12,1.589808276051e+12,1.589808276069e+12,1.58980827609e+12,1.589808276132e+12,1.589808276152e+12,1.589808276152e+12,1.589808276191e+12,1.58980827621e+12,1.58980827621e+12,1.589808276252e+12,1.589808276273e+12,1.589808276273e+12,1.589808276292e+12,1.589808276331e+12,1.589808276331e+12,1.589808276351e+12,1.589808276371e+12,1.589808276391e+12,1.589808276411e+12,1.589808276431e+12,1.589808276451e+12,1.589808276471e+12,1.589808276492e+12,1.589808276512e+12,1.589808276532e+12,1.589808276552e+12,1.589808276572e+12,1.589808276592e+12,1.589808276612e+12,1.589808276632e+12,1.589808276652e+12,1.589808276672e+12,1.589808276693e+12,1.589808276713e+12,1.589808276733e+12,1.589808276753e+12,1.589808276773e+12,1.589808276793e+12,1.589808276813e+12,1.589808276834e+12,1.589808276853e+12,1.589808276896e+12,1.589808276916e+12,1.589808276916e+12,1.589808276952e+12,1.589808276976e+12,1.589808276995e+12,1.589808277015e+12,1.589808277037e+12,1.589808277056e+12,1.589808277056e+12,1.589808277075e+12,1.589808277095e+12,1.589808277115e+12,1.589808277135e+12,1.589808277155e+12,1.589808277175e+12,1.589808277195e+12,1.589808277215e+12,1.589808277236e+12,1.589808277256e+12,1.589808277276e+12,1.589808277296e+12,1.589808277317e+12,1.589808277336e+12,1.589808277356e+12,1.589808277376e+12,1.589808277397e+12,1.589808277438e+12,1.589808277458e+12,1.589808277479e+12,1.589808277479e+12,1.589808277519e+12,1.589808277519e+12,1.589808277559e+12,1.589808277559e+12,1.5898082776e+12,1.5898082776e+12,1.589808277618e+12,1.589808277637e+12,1.589808277658e+12,1.589808277678e+12,1.589808277698e+12,1.589808277719e+12,1.589808277738e+12,1.589808277758e+12,1.589808277778e+12,1.589808277798e+12,1.589808277819e+12,1.589808277838e+12,1.589808277859e+12,1.589808277879e+12,1.589808277899e+12,1.589808277919e+12,1.589808277939e+12,1.589808277959e+12,1.589808277979e+12,1.589808278e+12,1.58980827802e+12,1.58980827804e+12,1.58980827806e+12,1.58980827808e+12,1.589808278101e+12,1.589808278121e+12,1.589808278163e+12,1.589808278183e+12,1.589808278203e+12,1.589808278223e+12,1.589808278243e+12,1.589808278263e+12,1.589808278283e+12,1.589808278304e+12,1.589808278323e+12,1.589808278343e+12,1.58980827836e+12,1.58980827836e+12,1.589808278381e+12,1.589808278402e+12,1.589808278421e+12,1.589808278442e+12,1.589808278462e+12,1.589808278482e+12,1.589808278503e+12,1.589808278523e+12,1.589808278542e+12,1.589808278563e+12,1.589808278583e+12,1.589808278603e+12,1.589808278623e+12,1.589808278643e+12,1.589808278663e+12,1.589808278705e+12,1.589808278725e+12,1.589808278725e+12,1.589808278746e+12,1.589808278765e+12,1.589808278803e+12,1.589808278826e+12,1.589808278846e+12,1.589808278865e+12,1.589808278865e+12,1.589808278884e+12,1.589808278904e+12,1.589808278925e+12,1.589808278944e+12,1.589808278964e+12,1.589808278985e+12,1.589808279005e+12,1.589808279025e+12,1.589808279045e+12,1.589808279065e+12,1.589808279085e+12,1.589808279105e+12,1.589808279125e+12,1.589808279145e+12,1.589808279166e+12,1.589808279186e+12,1.589808279206e+12,1.589808279226e+12,1.589808279246e+12,1.589808279266e+12,1.589808279286e+12,1.589808279306e+12,1.589808279327e+12,1.589808279346e+12,1.589808279367e+12,1.589808279387e+12,1.589808279429e+12,1.58980827945e+12,1.58980827947e+12,1.58980827949e+12,1.58980827949e+12,1.589808279526e+12,1.589808279546e+12,1.58980827957e+12,1.589808279589e+12,1.589808279589e+12,1.589808279608e+12,1.589808279629e+12,1.589808279648e+12,1.589808279668e+12,1.589808279688e+12,1.589808279709e+12,1.589808279728e+12,1.589808279749e+12,1.589808279769e+12,1.589808279789e+12,1.589808279809e+12,1.589808279829e+12,1.58980827985e+12,1.589808279869e+12,1.58980827989e+12,1.58980827991e+12,1.58980827993e+12,1.589808279972e+12,1.589808279972e+12,1.58980827999e+12,1.589808280032e+12,1.58980828005e+12,1.589808280073e+12,1.589808280093e+12,1.589808280113e+12,1.589808280133e+12,1.589808280153e+12,1.589808280171e+12,1.589808280171e+12,1.589808280191e+12,1.589808280211e+12,1.589808280231e+12,1.589808280251e+12,1.589808280271e+12,1.589808280291e+12,1.589808280312e+12,1.589808280332e+12,1.589808280352e+12,1.589808280372e+12,1.589808280392e+12,1.589808280413e+12,1.589808280433e+12,1.589808280453e+12,1.589808280473e+12,1.589808280493e+12,1.589808280514e+12,1.589808280533e+12,1.589808280553e+12,1.589808280573e+12,1.589808280594e+12,1.589808280614e+12,1.589808280634e+12,1.589808280653e+12,1.589808280673e+12,1.589808280716e+12,1.589808280736e+12,1.589808280756e+12,1.589808280756e+12,1.589808280796e+12,1.589808280817e+12,1.589808280837e+12,1.589808280856e+12,1.589808280856e+12,1.589808280895e+12,1.589808280895e+12,1.589808280915e+12,1.589808280935e+12,1.589808280956e+12,1.589808280975e+12,1.589808280995e+12,1.589808281016e+12,1.589808281035e+12,1.589808281056e+12,1.589808281076e+12,1.589808281096e+12,1.589808281116e+12,1.589808281136e+12,1.589808281156e+12,1.589808281176e+12,1.589808281196e+12,1.589808281217e+12,1.589808281236e+12,1.589808281257e+12,1.589808281299e+12,1.589808281317e+12,1.58980828134e+12,1.58980828134e+12,1.589808281379e+12,1.5898082814e+12,1.589808281417e+12,1.58980828144e+12,1.58980828144e+12,1.589808281479e+12,1.589808281479e+12,1.589808281498e+12,1.589808281518e+12,1.589808281538e+12,1.589808281558e+12,1.589808281578e+12,1.589808281599e+12,1.589808281619e+12,1.589808281638e+12,1.589808281659e+12,1.589808281679e+12,1.589808281699e+12,1.589808281719e+12,1.589808281739e+12,1.589808281759e+12,1.589808281779e+12,1.5898082818e+12,1.58980828182e+12,1.58980828184e+12,1.58980828186e+12,1.58980828188e+12,1.5898082819e+12,1.58980828192e+12,1.58980828194e+12,1.58980828196e+12,1.58980828198e+12,1.589808282023e+12,1.589808282042e+12,1.589808282064e+12,1.589808282083e+12,1.589808282103e+12,1.589808282123e+12,1.589808282143e+12,1.589808282162e+12,1.589808282183e+12,1.589808282183e+12,1.589808282202e+12,1.589808282222e+12,1.589808282242e+12,1.589808282262e+12,1.589808282282e+12,1.589808282302e+12,1.589808282322e+12,1.589808282342e+12,1.589808282363e+12,1.589808282383e+12,1.589808282403e+12,1.589808282423e+12,1.589808282444e+12,1.589808282464e+12,1.589808282483e+12,1.589808282502e+12,1.589808282544e+12,1.589808282564e+12,1.589808282564e+12,1.589808282604e+12,1.589808282624e+12,1.589808282644e+12,1.589808282665e+12,1.589808282685e+12,1.589808282705e+12,1.589808282725e+12,1.589808282725e+12,1.589808282742e+12,1.589808282765e+12,1.589808282785e+12,1.589808282805e+12,1.589808282826e+12,1.589808282845e+12,1.589808282865e+12,1.589808282885e+12,1.589808282906e+12,1.589808282926e+12,1.589808282946e+12,1.589808282966e+12,1.589808282987e+12,1.589808283006e+12,1.589808283026e+12,1.589808283046e+12,1.589808283067e+12,1.589808283086e+12,1.589808283107e+12,1.589808283127e+12,1.589808283147e+12,1.589808283167e+12,1.589808283187e+12,1.589808283207e+12,1.589808283227e+12,1.589808283247e+12,1.58980828329e+12,1.589808283309e+12,1.58980828333e+12,1.58980828333e+12,1.589808283369e+12,1.58980828339e+12,1.58980828339e+12,1.58980828343e+12,1.589808283451e+12,1.589808283451e+12,1.589808283468e+12,1.589808283488e+12,1.589808283509e+12]","{""city"":""Wuxi"",""province"":""Jiangsu"",""country"":""China"",""avatarUrl"":""https://wx.qlogo.cn/mmopen/vi_32/DYAIOgq83eqzPQRO1EMibzGmzuc0lauC7X5q4PtzDa6DXroqbdIRibgytPTliaxjbub7OhzJVIF7oMoQMkXPObvpw/132"",""nickName"":""高"",""gender"":1.0,""language"":""zh_CN""}"
